score_rand_1,key_resp_0.keys,key_resp_0.rt,key_resp_before.keys,key_resp_before.rt,time_instructions,training_resp.keys,training_resp.rt,trials.thisRepN,trials.thisTrialN,trials.thisN,trials.thisIndex,trials.ran,imageFile,participant,group,sitzung,geschlecht*,date,expName,psychopyVersion,OS,frameRate,training_resp_2.keys,training_resp_2.corr,training_resp_2.rt,repeat_training_loop.thisRepN,repeat_training_loop.thisTrialN,repeat_training_loop.thisN,repeat_training_loop.thisIndex,repeat_training_loop.ran,key_resp_break_1.keys,key_resp_break_1.rt,time_trial,key_resp_cue1.keys,key_resp_cue1.rt,key_pause.keys,key_resp_cue2.keys,resp1.keys,resp1.corr,resp1.rt,resp2.keys,resp2.corr,resp2.rt,resp3.keys,resp3.corr,resp3.rt,resp_total_value,resp_total_time,on_time,too_early,resp_total_corr,did_get_here,trials_loop.thisRepN,trials_loop.thisTrialN,trials_loop.thisN,trials_loop.thisIndex,trials_loop.ran,cue1,color1expl,cue2,color2expl,conditions,trial_type,congruent,corrAns1,corrAns2,corrAns3,corrAnsR,numbers_seq,numbers_pr,file_number,Jitter_Fix,Jitter_ICI,img_fix_1,img_fix_2,key_resp_cue2.rt,filler_press,key_pause.rt,bonus
117,3,2.667,4,0.679,3.447,4,1.967,0,0,0,0,1,same/Slide_A_1.jpg,1,A,Exp,Männlich,2020-04-11_15h10.47.191,Mental_Exp,2020.1.2,MacIntel,60,,,,,,,,,,,,,,,,,,,,,,,,,,,,,,,,,,,,,,,,,,,,,,,,,,,,,,,,,
,,,,,5.544,4,0.374,0,1,1,1,1,same/Slide_A_2.jpg,1,A,Exp,Männlich,2020-04-11_15h10.47.191,Mental_Exp,2020.1.2,MacIntel,60,,,,,,,,,,,,,,,,,,,,,,,,,,,,,,,,,,,,,,,,,,,,,,,,,,,,,,,,,
,,,,,6.011,4,0.411,0,2,2,2,1,same/Slide_A_3.jpg,1,A,Exp,Männlich,2020-04-11_15h10.47.191,Mental_Exp,2020.1.2,MacIntel,60,,,,,,,,,,,,,,,,,,,,,,,,,,,,,,,,,,,,,,,,,,,,,,,,,,,,,,,,,
,,,,,6.511,4,0.36,0,3,3,3,1,same/Slide_A_4.jpg,1,A,Exp,Männlich,2020-04-11_15h10.47.191,Mental_Exp,2020.1.2,MacIntel,60,,,,,,,,,,,,,,,,,,,,,,,,,,,,,,,,,,,,,,,,,,,,,,,,,,,,,,,,,
,,,,,6.96,4,0.394,0,4,4,4,1,same/Slide_A_5.jpg,1,A,Exp,Männlich,2020-04-11_15h10.47.191,Mental_Exp,2020.1.2,MacIntel,60,,,,,,,,,,,,,,,,,,,,,,,,,,,,,,,,,,,,,,,,,,,,,,,,,,,,,,,,,
,,,,,7.461,4,0.402,0,5,5,5,1,same/Slide_A_6.jpg,1,A,Exp,Männlich,2020-04-11_15h10.47.191,Mental_Exp,2020.1.2,MacIntel,60,,,,,,,,,,,,,,,,,,,,,,,,,,,,,,,,,,,,,,,,,,,,,,,,,,,,,,,,,
,,,,,,,,,,,,,,1,A,Exp,Männlich,2020-04-11_15h10.47.191,Mental_Exp,2020.1.2,MacIntel,60,4,1,1.334,0,0,0,0,1,,,,,,,,,,,,,,,,,,,,,,,,,,,,,,,,,,,,,,,,,,,,,,,,,
,,,,,,,,,,,,,,1,A,Exp,Männlich,2020-04-11_15h10.47.191,Mental_Exp,2020.1.2,MacIntel,60,,,,,,,,,4,1.327,11.714,1,0.41,,,3,1,1.1,3,1,0.232,1,1,0.273,0,0,0,1,0,0,0,0,0,0,1,cues/lightblue.png,lightblue,cues/lightblue.png,lightblue,spec,experimental,1,3,3,1,1,3 - 3 - 1,4,1,2.5,2.5,cues/fix_1.png,cues/fix_2.png,,,,
,,,,,,,,,,,,,,1,A,Exp,Männlich,2020-04-11_15h10.47.191,Mental_Exp,2020.1.2,MacIntel,60,,,,,,,,,,,20.228,,,,,1,0,0.749,1,0,0.161,3,0,0.332,0,1.242,1,0,0,1,0,1,1,1,1,cues/grey.png,grey,cues/purple.png,purple,rule,experimental,1,2,2,4,1,2 - 2 - 4,23,1,3.5,4,cues/fix_1.png,cues/fix_2.png,,,,
,,,,,,,,,,,,,,1,A,Exp,Männlich,2020-04-11_15h10.47.191,Mental_Exp,2020.1.2,MacIntel,60,,,,,,,,,,,31.244,,,,4,,0,,,0,,,0,,3,0,0,1,0,0,0,2,2,2,1,cues/white.png,white,cues/purple.png,purple,subrule,experimental,1,2,2,4,1,2 - 2 - 4,29,1,5,3.5,cues/fix_1.png,cues/fix_2.png,0.344,,,
,,,,,,,,,,,,,,1,A,Exp,Männlich,2020-04-11_15h10.47.191,Mental_Exp,2020.1.2,MacIntel,60,,,,,,,,,,,43.264,,,,4,,0,,,0,,,0,,3,0,0,1,0,0,0,3,3,3,1,cues/black.png,black,cues/yellow.png,yellow,general,experimental,1,1,3,1,1,1 - 3 - 1,16,1,2.5,2.5,cues/fix_1.png,cues/fix_2.png,0.297,,,
,,,,,,,,,,,,,,1,A,Exp,Männlich,2020-04-11_15h10.47.191,Mental_Exp,2020.1.2,MacIntel,60,,,,,,,,,,,51.78,,,,,,0,,,0,,,0,,3,2.5,0,0,0,1,0,4,4,4,1,cues/white.png,white,cues/pink.png,pink,subrule,experimental,1,1,1,3,1,1 - 1 - 3,32,1,3,5,cues/fix_1.png,cues/fix_2.png,,,,
,,,,,,,,,,,,,,1,A,Exp,Männlich,2020-04-11_15h10.47.191,Mental_Exp,2020.1.2,MacIntel,60,,,,,,,,,,,63.297,,,,,3,0,1.079,3,0,0.219,3,0,0.225,0,1.523,1,0,0,1,0,5,5,5,1,cues/black.png,black,cues/blue.png,blue,general,experimental,1,4,4,2,1,4 - 4 - 2,13,1,3,6,cues/fix_1.png,cues/fix_2.png,,,,
,,,,,,,,,,,,,,1,A,Exp,Männlich,2020-04-11_15h10.47.191,Mental_Exp,2020.1.2,MacIntel,60,,,,,,,,,,,75.793,,,,,2,0,0.463,2,0,0.287,2,1,0.263,0,1.013,1,0,0,1,0,6,6,6,1,cues/grey.png,grey,cues/blue.png,blue,rule,experimental,1,4,4,2,1,4 - 4 - 2,21,1,5,5.5,cues/fix_1.png,cues/fix_2.png,,,,
,,,,,,,,,,,,,,1,A,Exp,Männlich,2020-04-11_15h10.47.191,Mental_Exp,2020.1.2,MacIntel,60,,,,,,,,,,,89.81,,,,,2,0,1.431,2,0,0.211,2,0,0.179,0,1.821,1,0,0,1,0,7,7,7,1,cues/grey.png,grey,cues/orange.png,orange,fill_rule,filler,0,0,0,0,4,0 - 0 - 0,1,1,5.5,3.5,cues/fix_1.png,cues/fix_2.png,,1,,
,,,,,,,,,,,,,,1,A,Exp,Männlich,2020-04-11_15h10.47.191,Mental_Exp,2020.1.2,MacIntel,60,,,,,,,,,,,102.327,,,,,4,1,0.968,,0,,,0,,2,2.5,0,0,0,1,0,8,8,8,1,cues/black.png,black,cues/red.png,red,general,experimental,1,4,2,4,1,4 - 2 - 4,15,1,5,2,cues/fix_1.png,cues/fix_2.png,,,,
,,,,,,,,,,,,,,1,A,Exp,Männlich,2020-04-11_15h10.47.191,Mental_Exp,2020.1.2,MacIntel,60,,,,,,,,,,,112.845,,,,,,0,,,0,,,0,,3,2.5,0,0,0,1,0,9,9,9,1,cues/black.png,black,cues/green.png,green,general,experimental,1,2,4,2,1,2 - 4 - 2,14,1,2,2,cues/fix_1.png,cues/fix_2.png,,,,
,,,,,,,,,,,,,,1,A,Exp,Männlich,2020-04-11_15h10.47.191,Mental_Exp,2020.1.2,MacIntel,60,,,,,,,,,,,120.361,,,,,,0,,,0,,,0,,3,2.5,0,0,0,1,0,10,10,10,1,cues/grey.png,grey,cues/pink.png,pink,rule,experimental,1,1,1,3,1,1 - 1 - 3,18,1,4,3,cues/fix_1.png,cues/fix_2.png,,,,
,,,,,,,,,,,,,,1,A,Exp,Männlich,2020-04-11_15h10.47.191,Mental_Exp,2020.1.2,MacIntel,60,,,,,,,,,,,130.878,,,3,,,0,,,0,,,0,,3,0,0,1,0,0,0,11,11,11,1,cues/white.png,white,cues/purple.png,purple,subrule,experimental,1,2,2,4,1,2 - 2 - 4,33,1,6,3.5,cues/fix_1.png,cues/fix_2.png,,,0.225,
,,,,,,,,,,,,,,1,A,Exp,Männlich,2020-04-11_15h10.47.191,Mental_Exp,2020.1.2,MacIntel,60,,,,,,,,,,,143.895,,,,,,0,,,0,,,0,,3,2.5,0,0,0,1,0,12,12,12,1,cues/white.png,white,cues/purple.png,purple,subrule,experimental,1,2,2,4,1,2 - 2 - 4,31,1,2,3.5,cues/fix_1.png,cues/fix_2.png,,,,
,,,,,,,,,,,,,,1,A,Exp,Männlich,2020-04-11_15h10.47.191,Mental_Exp,2020.1.2,MacIntel,60,,,,,,,,,,,152.912,,,,,,0,,,0,,,0,,3,2.5,0,0,0,1,0,13,13,13,1,cues/black.png,black,cues/orange.png,orange,general,experimental,1,3,1,3,1,3 - 1 - 3,17,1,3,3,cues/fix_1.png,cues/fix_2.png,,,,
,,,,,,,,,,,,,,1,A,Exp,Männlich,2020-04-11_15h10.47.191,Mental_Exp,2020.1.2,MacIntel,60,,,,,,,,,,,162.428,,,,,,0,,,0,,,0,,3,2.5,0,0,0,1,0,14,14,14,1,cues/grey.png,grey,cues/blue.png,blue,rule,experimental,1,4,4,2,1,4 - 4 - 2,25,1,3,4,cues/fix_1.png,cues/fix_2.png,,,,
,,,,,,,,,,,,,,1,A,Exp,Männlich,2020-04-11_15h10.47.191,Mental_Exp,2020.1.2,MacIntel,60,,,,,,,,,,,172.945,,,,,,0,,,0,,,0,,3,2.5,0,0,0,1,0,15,15,15,1,cues/white.png,white,cues/pink.png,pink,subrule,experimental,1,1,1,3,1,1 - 1 - 3,30,1,3.5,5,cues/fix_1.png,cues/fix_2.png,,,,
,,,,,,,,,,,,,,1,A,Exp,Männlich,2020-04-11_15h10.47.191,Mental_Exp,2020.1.2,MacIntel,60,,,,,,,,,,,184.961,,,,,,0,,,0,,,0,,3,2.5,0,0,0,1,0,16,16,16,1,cues/yellow.png,yellow,cues/yellow.png,yellow,spec,experimental,1,1,3,1,1,1 - 3 - 1,8,1,4,4,cues/fix_1.png,cues/fix_2.png,,,,
,,,,,,,,,,,,,,1,A,Exp,Männlich,2020-04-11_15h10.47.191,Mental_Exp,2020.1.2,MacIntel,60,,,,,,,,,,,196.461,,,,,,0,,,0,,,0,,3,2.5,0,0,1,1,0,17,17,17,1,cues/white.png,white,cues/orange.png,orange,fill_sub_rule,filler,0,0,0,0,4,0 - 0 - 0,1,1,3,3,cues/fix_1.png,cues/fix_2.png,,0,,
,,,,,,,,,,,,,,1,A,Exp,Männlich,2020-04-11_15h10.47.191,Mental_Exp,2020.1.2,MacIntel,60,,,,,,,,,,,205.977,,,,,,0,,,0,,,0,,3,2.5,0,0,0,1,0,18,18,18,1,cues/grey.png,grey,cues/lightblue.png,lightblue,rule,experimental,1,3,3,1,1,3 - 3 - 1,20,1,5,2.5,cues/fix_1.png,cues/fix_2.png,,,,
,,,,,,,,,,,,,,1,A,Exp,Männlich,2020-04-11_15h10.47.191,Mental_Exp,2020.1.2,MacIntel,60,,,,,,,,,,,216.995,,,,,,0,,,0,,,0,,3,2.5,0,0,1,1,0,19,19,19,1,cues/grey.png,grey,cues/green.png,green,fill_rule,filler,0,0,0,0,4,0 - 0 - 0,1,1,2,4,cues/fix_1.png,cues/fix_2.png,,0,,
,,,,,,,,,,,,,,1,A,Exp,Männlich,2020-04-11_15h10.47.191,Mental_Exp,2020.1.2,MacIntel,60,,,,,,,,,,,226.511,,,,,,0,,,0,,,0,,3,2.5,0,0,0,1,0,20,20,20,1,cues/white.png,white,cues/purple.png,purple,subrule,experimental,1,2,2,4,1,2 - 2 - 4,27,1,4,6,cues/fix_1.png,cues/fix_2.png,,,,
,,,,,,,,,,,,,,1,A,Exp,Männlich,2020-04-11_15h10.47.191,Mental_Exp,2020.1.2,MacIntel,60,,,,,,,,,,,240.027,,,,,,0,,,0,,,0,,3,2.5,0,0,1,1,0,21,21,21,1,cues/white.png,white,cues/orange.png,orange,fill_sub_rule,filler,0,0,0,0,4,0 - 0 - 0,1,1,2.5,3.5,cues/fix_1.png,cues/fix_2.png,,0,,
,,,,,,,,,,,,,,1,A,Exp,Männlich,2020-04-11_15h10.47.191,Mental_Exp,2020.1.2,MacIntel,60,,,,,,,,,,,249.544,,,,,,0,,,0,,,0,,3,2.5,0,0,0,1,0,22,22,22,1,cues/black.png,black,cues/lightblue.png,lightblue,general,experimental,1,3,3,1,1,3 - 3 - 1,12,1,6,4.5,cues/fix_1.png,cues/fix_2.png,,,,
,,,,,,,,,,,,,,1,A,Exp,Männlich,2020-04-11_15h10.47.191,Mental_Exp,2020.1.2,MacIntel,60,,,,,,,,,,,263.56,,,,,,0,,,0,,,0,,3,2.5,0,0,0,1,0,23,23,23,1,cues/white.png,white,cues/pink.png,pink,subrule,experimental,1,1,1,3,1,1 - 1 - 3,26,1,6,3.5,cues/fix_1.png,cues/fix_2.png,,,,
,,,,,,,,,,,,,,1,A,Exp,Männlich,2020-04-11_15h10.47.191,Mental_Exp,2020.1.2,MacIntel,60,,,,,,,,,,,276.577,,,,,,0,,,0,,,0,,3,2.5,0,0,1,1,0,24,24,24,1,cues/lightblue.png,lightblue,cues/blue.png,blue,fill_spec,filler,0,0,0,0,4,0 - 0 - 0,1,1,5,3,cues/fix_1.png,cues/fix_2.png,,0,,
,,,,,,,,,,,,,,1,A,Exp,Männlich,2020-04-11_15h10.47.191,Mental_Exp,2020.1.2,MacIntel,60,,,,,,,,,,,288.093,,,,,,0,,,0,,,0,,3,2.5,0,0,0,1,0,25,25,25,1,cues/orange.png,orange,cues/orange.png,orange,spec,experimental,1,3,1,3,1,3 - 1 - 3,9,1,2,6,cues/fix_1.png,cues/fix_2.png,,,,
,,,,,,,,,,,,,,1,A,Exp,Männlich,2020-04-11_15h10.47.191,Mental_Exp,2020.1.2,MacIntel,60,,,,,,,,,,,299.61,,,,,,0,,,0,,,0,,3,2.5,0,0,0,1,0,26,26,26,1,cues/grey.png,grey,cues/purple.png,purple,rule,experimental,1,2,2,4,1,2 - 2 - 4,19,1,2.5,2.5,cues/fix_1.png,cues/fix_2.png,,,,
,,,,,,,,,,,,,,1,A,Exp,Männlich,2020-04-11_15h10.47.191,Mental_Exp,2020.1.2,MacIntel,60,,,,,,,,,,,308.127,,,,,,0,,,0,,,0,,3,2.5,0,0,0,1,0,27,27,27,1,cues/black.png,black,cues/pink.png,pink,general,experimental,1,1,1,3,1,1 - 1 - 3,10,1,4,4.5,cues/fix_1.png,cues/fix_2.png,,,,
,,,,,,,,,,,,,,1,A,Exp,Männlich,2020-04-11_15h10.47.191,Mental_Exp,2020.1.2,MacIntel,60,,,,,,,,,,,320.143,,,,,,0,,,0,,,0,,3,2.5,0,0,0,1,0,28,28,28,1,cues/red.png,red,cues/red.png,red,spec,experimental,1,4,2,4,1,4 - 2 - 4,7,1,5.5,2,cues/fix_1.png,cues/fix_2.png,,,,
,,,,,,,,,,,,,,1,A,Exp,Männlich,2020-04-11_15h10.47.191,Mental_Exp,2020.1.2,MacIntel,60,,,,,,,,,,,331.159,,,,,,0,,,0,,,0,,3,2.5,0,0,0,1,0,29,29,29,1,cues/black.png,black,cues/purple.png,purple,general,experimental,1,2,2,4,1,2 - 2 - 4,11,1,3.5,2,cues/fix_1.png,cues/fix_2.png,,,,
,,,,,,,,,,,,,,1,A,Exp,Männlich,2020-04-11_15h10.47.191,Mental_Exp,2020.1.2,MacIntel,60,,,,,,,,,,,340.176,,,,,,0,,,0,,,0,,3,2.5,0,0,1,1,0,30,30,30,1,cues/orange.png,orange,cues/purple.png,purple,fill_spec,filler,0,0,0,0,4,0 - 0 - 0,1,1,6,5,cues/fix_1.png,cues/fix_2.png,,0,,
,,,,,,,,,,,,,,1,A,Exp,Männlich,2020-04-11_15h10.47.191,Mental_Exp,2020.1.2,MacIntel,60,,,,,,,,,,,354.692,,,,,,0,,,0,,,0,,3,2.5,0,0,0,1,0,31,31,31,1,cues/pink.png,pink,cues/pink.png,pink,spec,experimental,1,1,1,3,1,1 - 1 - 3,2,1,5.5,5.5,cues/fix_1.png,cues/fix_2.png,,,,
,,,,,,,,,,,,,,1,A,Exp,Männlich,2020-04-11_15h10.47.191,Mental_Exp,2020.1.2,MacIntel,60,,,,,,,,,,,369.209,,,,,,0,,,0,,,0,,3,2.5,0,0,0,1,0,32,32,32,1,cues/grey.png,grey,cues/lightblue.png,lightblue,rule,experimental,1,3,3,1,1,3 - 3 - 1,24,1,2.5,4,cues/fix_1.png,cues/fix_2.png,,,,
,,,,,,,,,,,,,,1,A,Exp,Männlich,2020-04-11_15h10.47.191,Mental_Exp,2020.1.2,MacIntel,60,,,,,,,,,,,379.225,,,,,,0,,,0,,,0,,3,2.5,0,0,0,1,0,33,33,33,1,cues/purple.png,purple,cues/purple.png,purple,spec,experimental,1,2,2,4,1,2 - 2 - 4,3,1,2,4.5,cues/fix_1.png,cues/fix_2.png,,,,
,,,,,,,,,,,,,,1,A,Exp,Männlich,2020-04-11_15h10.47.191,Mental_Exp,2020.1.2,MacIntel,60,,,,,,,,,,,389.242,,,,,,0,,,0,,,0,,3,2.5,0,0,0,1,0,34,34,34,1,cues/white.png,white,cues/pink.png,pink,subrule,experimental,1,1,1,3,1,1 - 1 - 3,28,1,2.5,5,cues/fix_1.png,cues/fix_2.png,,,,
,,,,,,,,,,,,,,1,A,Exp,Männlich,2020-04-11_15h10.47.191,Mental_Exp,2020.1.2,MacIntel,60,,,,,,,,,,,400.258,,,,,,0,,,0,,,0,,3,2.5,0,0,0,1,0,35,35,35,1,cues/grey.png,grey,cues/pink.png,pink,rule,experimental,1,1,1,3,1,1 - 1 - 3,22,1,2.5,4,cues/fix_1.png,cues/fix_2.png,,,,
,,,,,,,,,,,,,,1,A,Exp,Männlich,2020-04-11_15h10.47.191,Mental_Exp,2020.1.2,MacIntel,60,,,,,,,,,,,410.275,,,,,,0,,,0,,,0,,3,2.5,0,0,0,1,0,36,36,36,1,cues/blue.png,blue,cues/blue.png,blue,spec,experimental,1,4,4,2,1,4 - 4 - 2,5,1,4,6,cues/fix_1.png,cues/fix_2.png,,,,
,,,,,,,,,,,,,,1,A,Exp,Männlich,2020-04-11_15h10.47.191,Mental_Exp,2020.1.2,MacIntel,60,,,,,,,,,,,423.791,,,,,,0,,,0,,,0,,3,2.5,0,0,0,1,0,37,37,37,1,cues/green.png,green,cues/green.png,green,spec,experimental,1,2,4,2,1,2 - 4 - 2,6,1,4.5,6,cues/fix_1.png,cues/fix_2.png,,,,
,,,,,,,,,,,,,,1,A,Exp,Männlich,2020-04-11_15h10.47.191,Mental_Exp,2020.1.2,MacIntel,60,,,,,,,,,,,437.809,,,,,,0,,,0,,,0,,3,2.5,0,0,1,1,0,38,38,38,1,cues/grey.png,grey,cues/orange.png,orange,fill_rule,filler,0,0,0,0,4,0 - 0 - 0,1,2,5.5,3.5,cues/fix_1.png,cues/fix_2.png,,0,,
,,,,,,,,,,,,,,1,A,Exp,Männlich,2020-04-11_15h10.47.191,Mental_Exp,2020.1.2,MacIntel,60,,,,,,,,,,,450.325,,,,,,0,,,0,,,0,,3,2.5,0,0,0,1,0,39,39,39,1,cues/yellow.png,yellow,cues/yellow.png,yellow,spec,experimental,1,1,3,1,1,1 - 3 - 1,8,2,5,3.5,cues/fix_1.png,cues/fix_2.png,,,,
,,,,,,,,,,,,,,1,A,Exp,Männlich,2020-04-11_15h10.47.191,Mental_Exp,2020.1.2,MacIntel,60,,,,,,,,,,,462.34,,,,,,0,,,0,,,0,,3,2.5,0,0,0,1,0,40,40,40,1,cues/white.png,white,cues/pink.png,pink,subrule,experimental,1,1,1,3,1,1 - 1 - 3,32,2,5,2.5,cues/fix_1.png,cues/fix_2.png,,,,
,,,,,,,,,,,,,,1,A,Exp,Männlich,2020-04-11_15h10.47.191,Mental_Exp,2020.1.2,MacIntel,60,,,,,,,,,,,473.359,,,,,,0,,,0,,,0,,3,2.5,0,0,0,1,0,41,41,41,1,cues/black.png,black,cues/purple.png,purple,general,experimental,1,2,2,4,1,2 - 2 - 4,11,2,2,6,cues/fix_1.png,cues/fix_2.png,,,,
,,,,,,,,,,,,,,1,A,Exp,Männlich,2020-04-11_15h10.47.191,Mental_Exp,2020.1.2,MacIntel,60,,,,,,,,,,,484.875,,,,,,0,,,0,,,0,,3,2.5,0,0,0,1,0,42,42,42,1,cues/grey.png,grey,cues/purple.png,purple,rule,experimental,1,2,2,4,1,2 - 2 - 4,23,2,2,6,cues/fix_1.png,cues/fix_2.png,,,,
,,,,,,,,,,,,,,1,A,Exp,Männlich,2020-04-11_15h10.47.191,Mental_Exp,2020.1.2,MacIntel,60,,,,,,,,,,,496.389,,,,,,0,,,0,,,0,,3,2.5,0,0,0,1,0,43,43,43,1,cues/lightblue.png,lightblue,cues/lightblue.png,lightblue,spec,experimental,1,3,3,1,1,3 - 3 - 1,4,2,6,5,cues/fix_1.png,cues/fix_2.png,,,,
,,,,,,,,,,,,,,1,A,Exp,Männlich,2020-04-11_15h10.47.191,Mental_Exp,2020.1.2,MacIntel,60,,,,,,,,,,,510.89,,,,,,0,,,0,,,0,,3,2.5,0,0,0,1,0,44,44,44,1,cues/grey.png,grey,cues/pink.png,pink,rule,experimental,1,1,1,3,1,1 - 1 - 3,22,2,3.5,4,cues/fix_1.png,cues/fix_2.png,,,,
,,,,,,,,,,,,,,1,A,Exp,Männlich,2020-04-11_15h10.47.191,Mental_Exp,2020.1.2,MacIntel,60,,,,,,,,,,,521.908,,,,,,0,,,0,,,0,,3,2.5,0,0,1,1,0,45,45,45,1,cues/pink.png,pink,cues/green.png,green,fill_spec,filler,0,0,0,0,4,0 - 0 - 0,1,2,6,2,cues/fix_1.png,cues/fix_2.png,,0,,
,,,,,,,,,,,,,,1,A,Exp,Männlich,2020-04-11_15h10.47.191,Mental_Exp,2020.1.2,MacIntel,60,,,,,,,,,,,533.424,,,,,,0,,,0,,,0,,3,2.5,0,0,0,1,0,46,46,46,1,cues/black.png,black,cues/lightblue.png,lightblue,general,experimental,1,3,3,1,1,3 - 3 - 1,12,2,6,4.5,cues/fix_1.png,cues/fix_2.png,,,,
,,,,,,,,,,,,,,1,A,Exp,Männlich,2020-04-11_15h10.47.191,Mental_Exp,2020.1.2,MacIntel,60,,,,,,,,,,,547.439,,,,,,0,,,0,,,0,,3,2.5,0,0,0,1,0,47,47,47,1,cues/black.png,black,cues/red.png,red,general,experimental,1,4,2,4,1,4 - 2 - 4,15,2,4.5,3,cues/fix_1.png,cues/fix_2.png,,,,
,,,,,,,,,,,,,,1,A,Exp,Männlich,2020-04-11_15h10.47.191,Mental_Exp,2020.1.2,MacIntel,60,,,,,,,,,,,558.458,,,,,,0,,,0,,,0,,3,2.5,0,0,0,1,0,48,48,48,1,cues/white.png,white,cues/pink.png,pink,subrule,experimental,1,1,1,3,1,1 - 1 - 3,30,2,2,6,cues/fix_1.png,cues/fix_2.png,,,,
,,,,,,,,,,,,,,1,A,Exp,Männlich,2020-04-11_15h10.47.191,Mental_Exp,2020.1.2,MacIntel,60,,,,,,,,,,,569.974,,,,,,0,,,0,,,0,,3,2.5,0,0,0,1,0,49,49,49,1,cues/grey.png,grey,cues/purple.png,purple,rule,experimental,1,2,2,4,1,2 - 2 - 4,19,2,4,5.5,cues/fix_1.png,cues/fix_2.png,,,,
,,,,,,,,,,,,,,1,A,Exp,Männlich,2020-04-11_15h10.47.191,Mental_Exp,2020.1.2,MacIntel,60,,,,,,,,,,,582.992,,,,,,0,,,0,,,0,,3,2.5,0,0,0,1,0,50,50,50,1,cues/grey.png,grey,cues/pink.png,pink,rule,experimental,1,1,1,3,1,1 - 1 - 3,18,2,2.5,6,cues/fix_1.png,cues/fix_2.png,,,,
,,,,,,,,,,,,,,1,A,Exp,Männlich,2020-04-11_15h10.47.191,Mental_Exp,2020.1.2,MacIntel,60,,,,,,,,,,,594.99,,,,,,0,,,0,,,0,,3,2.5,0,0,0,1,0,51,51,51,1,cues/white.png,white,cues/pink.png,pink,subrule,experimental,1,1,1,3,1,1 - 1 - 3,26,2,4.5,5.5,cues/fix_1.png,cues/fix_2.png,,,,
,,,,,,,,,,,,,,1,A,Exp,Männlich,2020-04-11_15h10.47.191,Mental_Exp,2020.1.2,MacIntel,60,,,,,,,,,,,608.507,,,,,,0,,,0,,,0,,3,2.5,0,0,0,1,0,52,52,52,1,cues/black.png,black,cues/blue.png,blue,general,experimental,1,4,4,2,1,4 - 4 - 2,13,2,5.5,2,cues/fix_1.png,cues/fix_2.png,,,,
,,,,,,,,,,,,,,1,A,Exp,Männlich,2020-04-11_15h10.47.191,Mental_Exp,2020.1.2,MacIntel,60,,,,,,,,,,,619.522,,,,,,0,,,0,,,0,,3,2.5,0,0,0,1,0,53,53,53,1,cues/grey.png,grey,cues/blue.png,blue,rule,experimental,1,4,4,2,1,4 - 4 - 2,21,2,3,4.5,cues/fix_1.png,cues/fix_2.png,,,,
,,,,,,,,,,,,,,1,A,Exp,Männlich,2020-04-11_15h10.47.191,Mental_Exp,2020.1.2,MacIntel,60,,,,,,,,,,,630.54,,,,,,0,,,0,,,0,,3,2.5,0,0,0,1,0,54,54,54,1,cues/black.png,black,cues/yellow.png,yellow,general,experimental,1,1,3,1,1,1 - 3 - 1,16,2,5,6,cues/fix_1.png,cues/fix_2.png,,,,
,,,,,,,,,,,,,,1,A,Exp,Männlich,2020-04-11_15h10.47.191,Mental_Exp,2020.1.2,MacIntel,60,,,,,,,,,,,645.056,,,,,,0,,,0,,,0,,3,2.5,0,0,1,1,0,55,55,55,1,cues/grey.png,grey,cues/red.png,red,fill_rule,filler,0,0,0,0,4,0 - 0 - 0,1,2,2.5,2.5,cues/fix_1.png,cues/fix_2.png,,0,,
,,,,,,,,,,,,,,1,A,Exp,Männlich,2020-04-11_15h10.47.191,Mental_Exp,2020.1.2,MacIntel,60,,,,,,,,,,,653.556,,,,,,0,,,0,,,0,,3,2.5,0,0,0,1,0,56,56,56,1,cues/grey.png,grey,cues/blue.png,blue,rule,experimental,1,4,4,2,1,4 - 4 - 2,25,2,4.5,4.5,cues/fix_1.png,cues/fix_2.png,,,,
,,,,,,,,,,,,,,1,A,Exp,Männlich,2020-04-11_15h10.47.191,Mental_Exp,2020.1.2,MacIntel,60,,,,,,,,,,,666.073,,,,,,0,,,0,,,0,,3,2.5,0,0,0,1,0,57,57,57,1,cues/white.png,white,cues/purple.png,purple,subrule,experimental,1,2,2,4,1,2 - 2 - 4,29,2,5.5,4.5,cues/fix_1.png,cues/fix_2.png,,,,
,,,,,,,,,,,,,,1,A,Exp,Männlich,2020-04-11_15h10.47.191,Mental_Exp,2020.1.2,MacIntel,60,,,,,,,,,,,679.59,,,,,,0,,,0,,,0,,3,2.5,0,0,0,1,0,58,58,58,1,cues/black.png,black,cues/pink.png,pink,general,experimental,1,1,1,3,1,1 - 1 - 3,10,2,5,4.5,cues/fix_1.png,cues/fix_2.png,,,,
,,,,,,,,,,,,,,1,A,Exp,Männlich,2020-04-11_15h10.47.191,Mental_Exp,2020.1.2,MacIntel,60,,,,,,,,,,,692.606,,,,,,0,,,0,,,0,,3,2.5,0,0,1,1,0,59,59,59,1,cues/purple.png,purple,cues/pink.png,pink,fill_spec,filler,0,0,0,0,4,0 - 0 - 0,1,2,4.5,4.5,cues/fix_1.png,cues/fix_2.png,,0,,
,,,,,,,,,,,,,,1,A,Exp,Männlich,2020-04-11_15h10.47.191,Mental_Exp,2020.1.2,MacIntel,60,,,,,,,,,,,705.122,,,,,,0,,,0,,,0,,3,2.5,0,0,0,1,0,60,60,60,1,cues/grey.png,grey,cues/lightblue.png,lightblue,rule,experimental,1,3,3,1,1,3 - 3 - 1,20,2,5,4,cues/fix_1.png,cues/fix_2.png,,,,
,,,,,,,,,,,,,,1,A,Exp,Männlich,2020-04-11_15h10.47.191,Mental_Exp,2020.1.2,MacIntel,60,,,,,,,,,,,717.639,,,,,,0,,,0,,,0,,3,2.5,0,0,0,1,0,61,61,61,1,cues/white.png,white,cues/pink.png,pink,subrule,experimental,1,1,1,3,1,1 - 1 - 3,28,2,4.5,3,cues/fix_1.png,cues/fix_2.png,,,,
,,,,,,,,,,,,,,1,A,Exp,Männlich,2020-04-11_15h10.47.191,Mental_Exp,2020.1.2,MacIntel,60,,,,,,,,,,,728.655,,,,,,0,,,0,,,0,,3,2.5,0,0,0,1,0,62,62,62,1,cues/white.png,white,cues/purple.png,purple,subrule,experimental,1,2,2,4,1,2 - 2 - 4,31,2,6,5,cues/fix_1.png,cues/fix_2.png,,,,
,,,,,,,,,,,,,,1,A,Exp,Männlich,2020-04-11_15h10.47.191,Mental_Exp,2020.1.2,MacIntel,60,,,,,,,,,,,743.17,,,,,,0,,,0,,,0,,3,2.5,0,0,0,1,0,63,63,63,1,cues/red.png,red,cues/red.png,red,spec,experimental,1,4,2,4,1,4 - 2 - 4,7,2,5.5,4,cues/fix_1.png,cues/fix_2.png,,,,
,,,,,,,,,,,,,,1,A,Exp,Männlich,2020-04-11_15h10.47.191,Mental_Exp,2020.1.2,MacIntel,60,,,,,,,,,,,756.188,,,,,,0,,,0,,,0,,3,2.5,0,0,0,1,0,64,64,64,1,cues/blue.png,blue,cues/blue.png,blue,spec,experimental,1,4,4,2,1,4 - 4 - 2,5,2,5.5,4.5,cues/fix_1.png,cues/fix_2.png,,,,
,,,,,,,,,,,,,,1,A,Exp,Männlich,2020-04-11_15h10.47.191,Mental_Exp,2020.1.2,MacIntel,60,,,,,,,,,,,769.705,,,,,,0,,,0,,,0,,3,2.5,0,0,0,1,0,65,65,65,1,cues/black.png,black,cues/orange.png,orange,general,experimental,1,3,1,3,1,3 - 1 - 3,17,2,5.5,2,cues/fix_1.png,cues/fix_2.png,,,,
,,,,,,,,,,,,,,1,A,Exp,Männlich,2020-04-11_15h10.47.191,Mental_Exp,2020.1.2,MacIntel,60,,,,,,,,,,,780.704,,,,,,0,,,0,,,0,,3,2.5,0,0,0,1,0,66,66,66,1,cues/grey.png,grey,cues/lightblue.png,lightblue,rule,experimental,1,3,3,1,1,3 - 3 - 1,24,2,6,2.5,cues/fix_1.png,cues/fix_2.png,,,,
,,,,,,,,,,,,,,1,A,Exp,Männlich,2020-04-11_15h10.47.191,Mental_Exp,2020.1.2,MacIntel,60,,,,,,,,,,,792.721,,,,,,0,,,0,,,0,,3,2.5,0,0,0,1,0,67,67,67,1,cues/white.png,white,cues/purple.png,purple,subrule,experimental,1,2,2,4,1,2 - 2 - 4,27,2,6,2.5,cues/fix_1.png,cues/fix_2.png,,,,
,,,,,,,,,,,,,,1,A,Exp,Männlich,2020-04-11_15h10.47.191,Mental_Exp,2020.1.2,MacIntel,60,,,,,,,,,,,804.737,,,,,,0,,,0,,,0,,3,2.5,0,0,1,1,0,68,68,68,1,cues/white.png,white,cues/orange.png,orange,fill_sub_rule,filler,0,0,0,0,4,0 - 0 - 0,1,2,3,2.5,cues/fix_1.png,cues/fix_2.png,,0,,
,,,,,,,,,,,,,,1,A,Exp,Männlich,2020-04-11_15h10.47.191,Mental_Exp,2020.1.2,MacIntel,60,,,,,,,,,,,813.755,,,,,,0,,,0,,,0,,3,2.5,0,0,0,1,0,69,69,69,1,cues/pink.png,pink,cues/pink.png,pink,spec,experimental,1,1,1,3,1,1 - 1 - 3,2,2,4,2,cues/fix_1.png,cues/fix_2.png,,,,
,,,,,,,,,,,,,,1,A,Exp,Männlich,2020-04-11_15h10.47.191,Mental_Exp,2020.1.2,MacIntel,60,,,,,,,,,,,823.271,,,,,,0,,,0,,,0,,3,2.5,0,0,0,1,0,70,70,70,1,cues/orange.png,orange,cues/orange.png,orange,spec,experimental,1,3,1,3,1,3 - 1 - 3,9,2,4,5.5,cues/fix_1.png,cues/fix_2.png,,,,
,,,,,,,,,,,,,,1,A,Exp,Männlich,2020-04-11_15h10.47.191,Mental_Exp,2020.1.2,MacIntel,60,,,,,,,,,,,836.286,,,,,,0,,,0,,,0,,3,2.5,0,0,0,1,0,71,71,71,1,cues/black.png,black,cues/green.png,green,general,experimental,1,2,4,2,1,2 - 4 - 2,14,2,4,4.5,cues/fix_1.png,cues/fix_2.png,,,,
,,,,,,,,,,,,,,1,A,Exp,Männlich,2020-04-11_15h10.47.191,Mental_Exp,2020.1.2,MacIntel,60,,,,,,,,,,,848.304,,,,,,0,,,0,,,0,,3,2.5,0,0,0,1,0,72,72,72,1,cues/white.png,white,cues/purple.png,purple,subrule,experimental,1,2,2,4,1,2 - 2 - 4,33,2,3,3.5,cues/fix_1.png,cues/fix_2.png,,,,
,,,,,,,,,,,,,,1,A,Exp,Männlich,2020-04-11_15h10.47.191,Mental_Exp,2020.1.2,MacIntel,60,,,,,,,,,,,858.32,,,,,,0,,,0,,,0,,3,2.5,0,0,0,1,0,73,73,73,1,cues/purple.png,purple,cues/purple.png,purple,spec,experimental,1,2,2,4,1,2 - 2 - 4,3,2,2.5,2.5,cues/fix_1.png,cues/fix_2.png,,,,
,,,,,,,,,,,,,,1,A,Exp,Männlich,2020-04-11_15h10.47.191,Mental_Exp,2020.1.2,MacIntel,60,,,,,,,,,,,866.836,,,,,,0,,,0,,,0,,3,2.5,0,0,1,1,0,74,74,74,1,cues/white.png,white,cues/lightblue.png,lightblue,fill_sub_rule,filler,0,0,0,0,4,0 - 0 - 0,1,2,2.5,5,cues/fix_1.png,cues/fix_2.png,,0,,
,,,,,,,,,,,,,,1,A,Exp,Männlich,2020-04-11_15h10.47.191,Mental_Exp,2020.1.2,MacIntel,60,,,,,,,,,,,877.853,,,,,,0,,,0,,,0,,3,2.5,0,0,0,1,0,75,75,75,1,cues/green.png,green,cues/green.png,green,spec,experimental,1,2,4,2,1,2 - 4 - 2,6,2,2,4,cues/fix_1.png,cues/fix_2.png,,,,
,,,,,,,,,,,,,,1,A,Exp,Männlich,2020-04-11_15h10.47.191,Mental_Exp,2020.1.2,MacIntel,60,,,,,,,,,,,887.368,,,,,,0,,,0,,,0,,3,2.5,0,0,0,1,0,76,76,76,1,cues/lightblue.png,lightblue,cues/lightblue.png,lightblue,spec,experimental,1,3,3,1,1,3 - 3 - 1,4,3,5,2.5,cues/fix_1.png,cues/fix_2.png,,,,
,,,,,,,,,,,,,,1,A,Exp,Männlich,2020-04-11_15h10.47.191,Mental_Exp,2020.1.2,MacIntel,60,,,,,,,,,,,898.386,,,,,,0,,,0,,,0,,3,2.5,0,0,0,1,0,77,77,77,1,cues/black.png,black,cues/pink.png,pink,general,experimental,1,1,1,3,1,1 - 1 - 3,10,3,4.5,6,cues/fix_1.png,cues/fix_2.png,,,,
,,,,,,,,,,,,,,1,A,Exp,Männlich,2020-04-11_15h10.47.191,Mental_Exp,2020.1.2,MacIntel,60,,,,,,,,,,,912.401,,,,,,0,,,0,,,0,,3,2.5,0,0,0,1,0,78,78,78,1,cues/white.png,white,cues/pink.png,pink,subrule,experimental,1,1,1,3,1,1 - 1 - 3,30,3,2.5,6,cues/fix_1.png,cues/fix_2.png,,,,
,,,,,,,,,,,,,,1,A,Exp,Männlich,2020-04-11_15h10.47.191,Mental_Exp,2020.1.2,MacIntel,60,,,,,,,,,,,924.417,,,,,,0,,,0,,,0,,3,2.5,0,0,0,1,0,79,79,79,1,cues/grey.png,grey,cues/purple.png,purple,rule,experimental,1,2,2,4,1,2 - 2 - 4,23,3,2.5,5.5,cues/fix_1.png,cues/fix_2.png,,,,
,,,,,,,,,,,,,,1,A,Exp,Männlich,2020-04-11_15h10.47.191,Mental_Exp,2020.1.2,MacIntel,60,,,,,,,,,,,935.935,,,,,,0,,,0,,,0,,3,2.5,0,0,1,1,0,80,80,80,1,cues/grey.png,grey,cues/yellow.png,yellow,fill_rule,filler,0,0,0,0,4,0 - 0 - 0,1,3,4,2,cues/fix_1.png,cues/fix_2.png,,0,,
,,,,,,,,,,,,,,1,A,Exp,Männlich,2020-04-11_15h10.47.191,Mental_Exp,2020.1.2,MacIntel,60,,,,,,,,,,,945.451,,,,,,0,,,0,,,0,,3,2.5,0,0,0,1,0,81,81,81,1,cues/black.png,black,cues/orange.png,orange,general,experimental,1,3,1,3,1,3 - 1 - 3,17,3,6,4.5,cues/fix_1.png,cues/fix_2.png,,,,
,,,,,,,,,,,,,,1,A,Exp,Männlich,2020-04-11_15h10.47.191,Mental_Exp,2020.1.2,MacIntel,60,,,,,,,,,,,959.468,,,,,,0,,,0,,,0,,3,2.5,0,0,0,1,0,82,82,82,1,cues/white.png,white,cues/purple.png,purple,subrule,experimental,1,2,2,4,1,2 - 2 - 4,33,3,6,6,cues/fix_1.png,cues/fix_2.png,,,,
,,,,,,,,,,,,,,1,A,Exp,Männlich,2020-04-11_15h10.47.191,Mental_Exp,2020.1.2,MacIntel,60,,,,,,,,,,,974.984,,,,,,0,,,0,,,0,,3,2.5,0,0,1,1,0,83,83,83,1,cues/white.png,white,cues/lightblue.png,lightblue,fill_sub_rule,filler,0,0,0,0,4,0 - 0 - 0,1,3,4.5,2.5,cues/fix_1.png,cues/fix_2.png,,0,,
,,,,,,,,,,,,,,1,A,Exp,Männlich,2020-04-11_15h10.47.191,Mental_Exp,2020.1.2,MacIntel,60,,,,,,,,,,,985.501,,,,,,0,,,0,,,0,,3,2.5,0,0,0,1,0,84,84,84,1,cues/grey.png,grey,cues/lightblue.png,lightblue,rule,experimental,1,3,3,1,1,3 - 3 - 1,24,3,3.5,4,cues/fix_1.png,cues/fix_2.png,,,,
,,,,,,,,,,,,,,1,A,Exp,Männlich,2020-04-11_15h10.47.191,Mental_Exp,2020.1.2,MacIntel,60,,,,,,,,,,,996.517,,,,,,0,,,0,,,0,,3,2.5,0,0,0,1,0,85,85,85,1,cues/white.png,white,cues/purple.png,purple,subrule,experimental,1,2,2,4,1,2 - 2 - 4,31,3,3,2.5,cues/fix_1.png,cues/fix_2.png,,,,
,,,,,,,,,,,,,,1,A,Exp,Männlich,2020-04-11_15h10.47.191,Mental_Exp,2020.1.2,MacIntel,60,,,,,,,,,,,1005.533,,,,,,0,,,0,,,0,,3,2.5,0,0,0,1,0,86,86,86,1,cues/black.png,black,cues/red.png,red,general,experimental,1,4,2,4,1,4 - 2 - 4,15,3,2,2.5,cues/fix_1.png,cues/fix_2.png,,,,
,,,,,,,,,,,,,,1,A,Exp,Männlich,2020-04-11_15h10.47.191,Mental_Exp,2020.1.2,MacIntel,60,,,,,,,,,,,1013.55,,,,,,0,,,0,,,0,,3,2.5,0,0,1,1,0,87,87,87,1,cues/white.png,white,cues/green.png,green,fill_sub_rule,filler,0,0,0,0,4,0 - 0 - 0,1,3,4.5,5,cues/fix_1.png,cues/fix_2.png,,0,,
,,,,,,,,,,,,,,1,A,Exp,Männlich,2020-04-11_15h10.47.191,Mental_Exp,2020.1.2,MacIntel,60,,,,,,,,,,,1026.567,,,,,,0,,,0,,,0,,3,2.5,0,0,0,1,0,88,88,88,1,cues/black.png,black,cues/yellow.png,yellow,general,experimental,1,1,3,1,1,1 - 3 - 1,16,3,5.5,4.5,cues/fix_1.png,cues/fix_2.png,,,,
,,,,,,,,,,,,,,1,A,Exp,Männlich,2020-04-11_15h10.47.191,Mental_Exp,2020.1.2,MacIntel,60,,,,,,,,,,,1040.083,,,,,,0,,,0,,,0,,3,2.5,0,0,0,1,0,89,89,89,1,cues/grey.png,grey,cues/blue.png,blue,rule,experimental,1,4,4,2,1,4 - 4 - 2,21,3,4.5,4,cues/fix_1.png,cues/fix_2.png,,,,
,,,,,,,,,,,,,,1,A,Exp,Männlich,2020-04-11_15h10.47.191,Mental_Exp,2020.1.2,MacIntel,60,,,,,,,,,,,1052.1,,,,,,0,,,0,,,0,,3,2.5,0,0,0,1,0,90,90,90,1,cues/yellow.png,yellow,cues/yellow.png,yellow,spec,experimental,1,1,3,1,1,1 - 3 - 1,8,3,2,4.5,cues/fix_1.png,cues/fix_2.png,,,,
,,,,,,,,,,,,,,1,A,Exp,Männlich,2020-04-11_15h10.47.191,Mental_Exp,2020.1.2,MacIntel,60,,,,,,,,,,,1062.116,,,,,,0,,,0,,,0,,3,2.5,0,0,0,1,0,91,91,91,1,cues/purple.png,purple,cues/purple.png,purple,spec,experimental,1,2,2,4,1,2 - 2 - 4,3,3,5.5,4.5,cues/fix_1.png,cues/fix_2.png,,,,
,,,,,,,,,,,,,,1,A,Exp,Männlich,2020-04-11_15h10.47.191,Mental_Exp,2020.1.2,MacIntel,60,,,,,,,,,,,1075.632,,,,,,0,,,0,,,0,,3,2.5,0,0,0,1,0,92,92,92,1,cues/black.png,black,cues/blue.png,blue,general,experimental,1,4,4,2,1,4 - 4 - 2,13,3,2.5,3,cues/fix_1.png,cues/fix_2.png,,,,
,,,,,,,,,,,,,,1,A,Exp,Männlich,2020-04-11_15h10.47.191,Mental_Exp,2020.1.2,MacIntel,60,,,,,,,,,,,1084.649,,,,,,0,,,0,,,0,,3,2.5,0,0,0,1,0,93,93,93,1,cues/white.png,white,cues/purple.png,purple,subrule,experimental,1,2,2,4,1,2 - 2 - 4,27,3,6,5,cues/fix_1.png,cues/fix_2.png,,,,
,,,,,,,,,,,,,,1,A,Exp,Männlich,2020-04-11_15h10.47.191,Mental_Exp,2020.1.2,MacIntel,60,,,,,,,,,,,1099.165,,,,,,0,,,0,,,0,,3,2.5,0,0,0,1,0,94,94,94,1,cues/white.png,white,cues/pink.png,pink,subrule,experimental,1,1,1,3,1,1 - 1 - 3,26,3,5,2,cues/fix_1.png,cues/fix_2.png,,,,
,,,,,,,,,,,,,,1,A,Exp,Männlich,2020-04-11_15h10.47.191,Mental_Exp,2020.1.2,MacIntel,60,,,,,,,,,,,1109.682,,,,,,0,,,0,,,0,,3,2.5,0,0,0,1,0,95,95,95,1,cues/blue.png,blue,cues/blue.png,blue,spec,experimental,1,4,4,2,1,4 - 4 - 2,5,3,3.5,3,cues/fix_1.png,cues/fix_2.png,,,,
,,,,,,,,,,,,,,1,A,Exp,Männlich,2020-04-11_15h10.47.191,Mental_Exp,2020.1.2,MacIntel,60,,,,,,,,,,,1119.699,,,,,,0,,,0,,,0,,3,2.5,0,0,1,1,0,96,96,96,1,cues/purple.png,purple,cues/pink.png,pink,fill_spec,filler,0,0,0,0,4,0 - 0 - 0,1,3,4.5,5,cues/fix_1.png,cues/fix_2.png,,0,,
,,,,,,,,,,,,,,1,A,Exp,Männlich,2020-04-11_15h10.47.191,Mental_Exp,2020.1.2,MacIntel,60,,,,,,,,,,,1132.715,,,,,,0,,,0,,,0,,3,2.5,0,0,0,1,0,97,97,97,1,cues/green.png,green,cues/green.png,green,spec,experimental,1,2,4,2,1,2 - 4 - 2,6,3,3,6,cues/fix_1.png,cues/fix_2.png,,,,
,,,,,,,,,,,,,,1,A,Exp,Männlich,2020-04-11_15h10.47.191,Mental_Exp,2020.1.2,MacIntel,60,,,,,,,,,,,1145.231,,,,,,0,,,0,,,0,,3,2.5,0,0,1,1,0,98,98,98,1,cues/yellow.png,yellow,cues/purple.png,purple,fill_spec,filler,0,0,0,0,4,0 - 0 - 0,1,3,3.5,2.5,cues/fix_1.png,cues/fix_2.png,,0,,
,,,,,,,,,,,,,,1,A,Exp,Männlich,2020-04-11_15h10.47.191,Mental_Exp,2020.1.2,MacIntel,60,,,,,,,,,,,1154.748,,,,,,0,,,0,,,0,,3,2.5,0,0,0,1,0,99,99,99,1,cues/black.png,black,cues/lightblue.png,lightblue,general,experimental,1,3,3,1,1,3 - 3 - 1,12,3,2,5,cues/fix_1.png,cues/fix_2.png,,,,
,,,,,,,,,,,,,,1,A,Exp,Männlich,2020-04-11_15h10.47.191,Mental_Exp,2020.1.2,MacIntel,60,,,,,,,,,,,1165.265,,,,,,0,,,0,,,0,,3,2.5,0,0,0,1,0,100,100,100,1,cues/grey.png,grey,cues/purple.png,purple,rule,experimental,1,2,2,4,1,2 - 2 - 4,19,3,3,2,cues/fix_1.png,cues/fix_2.png,,,,
,,,,,,,,,,,,,,1,A,Exp,Männlich,2020-04-11_15h10.47.191,Mental_Exp,2020.1.2,MacIntel,60,,,,,,,,,,,1173.781,,,,,,0,,,0,,,0,,3,2.5,0,0,0,1,0,101,101,101,1,cues/pink.png,pink,cues/pink.png,pink,spec,experimental,1,1,1,3,1,1 - 1 - 3,2,3,6,4.5,cues/fix_1.png,cues/fix_2.png,,,,
,,,,,,,,,,,,,,1,A,Exp,Männlich,2020-04-11_15h10.47.191,Mental_Exp,2020.1.2,MacIntel,60,,,,,,,,,,,1187.798,,,,,,0,,,0,,,0,,3,2.5,0,0,0,1,0,102,102,102,1,cues/white.png,white,cues/purple.png,purple,subrule,experimental,1,2,2,4,1,2 - 2 - 4,29,3,5,5.5,cues/fix_1.png,cues/fix_2.png,,,,
,,,,,,,,,,,,,,1,A,Exp,Männlich,2020-04-11_15h10.47.191,Mental_Exp,2020.1.2,MacIntel,60,,,,,,,,,,,1201.814,,,,,,0,,,0,,,0,,3,2.5,0,0,1,1,0,103,103,103,1,cues/grey.png,grey,cues/green.png,green,fill_rule,filler,0,0,0,0,4,0 - 0 - 0,1,3,6,3,cues/fix_1.png,cues/fix_2.png,,0,,
,,,,,,,,,,,,,,1,A,Exp,Männlich,2020-04-11_15h10.47.191,Mental_Exp,2020.1.2,MacIntel,60,,,,,,,,,,,1214.332,,,,,,0,,,0,,,0,,3,2.5,0,0,0,1,0,104,104,104,1,cues/red.png,red,cues/red.png,red,spec,experimental,1,4,2,4,1,4 - 2 - 4,7,3,2.5,5,cues/fix_1.png,cues/fix_2.png,,,,
,,,,,,,,,,,,,,1,A,Exp,Männlich,2020-04-11_15h10.47.191,Mental_Exp,2020.1.2,MacIntel,60,,,,,,,,,,,1225.348,,,,,,0,,,0,,,0,,3,2.5,0,0,0,1,0,105,105,105,1,cues/grey.png,grey,cues/pink.png,pink,rule,experimental,1,1,1,3,1,1 - 1 - 3,22,3,3.5,2,cues/fix_1.png,cues/fix_2.png,,,,
,,,,,,,,,,,,,,1,A,Exp,Männlich,2020-04-11_15h10.47.191,Mental_Exp,2020.1.2,MacIntel,60,,,,,,,,,,,1234.364,,,,,,0,,,0,,,0,,3,2.5,0,0,0,1,0,106,106,106,1,cues/white.png,white,cues/pink.png,pink,subrule,experimental,1,1,1,3,1,1 - 1 - 3,32,3,5.5,3,cues/fix_1.png,cues/fix_2.png,,,,
,,,,,,,,,,,,,,1,A,Exp,Männlich,2020-04-11_15h10.47.191,Mental_Exp,2020.1.2,MacIntel,60,,,,,,,,,,,1246.38,,,,,,0,,,0,,,0,,3,2.5,0,0,0,1,0,107,107,107,1,cues/black.png,black,cues/purple.png,purple,general,experimental,1,2,2,4,1,2 - 2 - 4,11,3,3.5,3.5,cues/fix_1.png,cues/fix_2.png,,,,
,,,,,,,,,,,,,,1,A,Exp,Männlich,2020-04-11_15h10.47.191,Mental_Exp,2020.1.2,MacIntel,60,,,,,,,,,,,1256.897,,,,,,0,,,0,,,0,,3,2.5,0,0,0,1,0,108,108,108,1,cues/black.png,black,cues/green.png,green,general,experimental,1,2,4,2,1,2 - 4 - 2,14,3,2,5.5,cues/fix_1.png,cues/fix_2.png,,,,
,,,,,,,,,,,,,,1,A,Exp,Männlich,2020-04-11_15h10.47.191,Mental_Exp,2020.1.2,MacIntel,60,,,,,,,,,,,1267.914,,,,,,0,,,0,,,0,,3,2.5,0,0,0,1,0,109,109,109,1,cues/grey.png,grey,cues/lightblue.png,lightblue,rule,experimental,1,3,3,1,1,3 - 3 - 1,20,3,2.5,3.5,cues/fix_1.png,cues/fix_2.png,,,,
,,,,,,,,,,,,,,1,A,Exp,Männlich,2020-04-11_15h10.47.191,Mental_Exp,2020.1.2,MacIntel,60,,,,,,,,,,,1277.43,,,,,,0,,,0,,,0,,3,2.5,0,0,0,1,0,110,110,110,1,cues/white.png,white,cues/pink.png,pink,subrule,experimental,1,1,1,3,1,1 - 1 - 3,28,3,6,2,cues/fix_1.png,cues/fix_2.png,,,,
,,,,,,,,,,,,,,1,A,Exp,Männlich,2020-04-11_15h10.47.191,Mental_Exp,2020.1.2,MacIntel,60,,,,,,,,,,,1288.947,,,,,,0,,,0,,,0,,3,2.5,0,0,0,1,0,111,111,111,1,cues/grey.png,grey,cues/pink.png,pink,rule,experimental,1,1,1,3,1,1 - 1 - 3,18,3,2,3.5,cues/fix_1.png,cues/fix_2.png,,,,
,,,,,,,,,,,,,,1,A,Exp,Männlich,2020-04-11_15h10.47.191,Mental_Exp,2020.1.2,MacIntel,60,,,,,,,,,,,1297.963,,,,,,0,,,0,,,0,,3,2.5,0,0,0,1,0,112,112,112,1,cues/grey.png,grey,cues/blue.png,blue,rule,experimental,1,4,4,2,1,4 - 4 - 2,25,3,3,3,cues/fix_1.png,cues/fix_2.png,,,,
,,,,,,,,,,,,,,1,A,Exp,Männlich,2020-04-11_15h10.47.191,Mental_Exp,2020.1.2,MacIntel,60,,,,,,,,,,,1307.48,,,,,,0,,,0,,,0,,3,2.5,0,0,0,1,0,113,113,113,1,cues/orange.png,orange,cues/orange.png,orange,spec,experimental,1,3,1,3,1,3 - 1 - 3,9,3,3,6,cues/fix_1.png,cues/fix_2.png,,,,
,,,,,,,,,,,,,,1,A,Exp,Männlich,2020-04-11_15h10.47.191,Mental_Exp,2020.1.2,MacIntel,60,,,,,,,,,,,1319.995,,,,,,0,,,0,,,0,,3,2.5,0,0,0,1,0,114,114,114,1,cues/black.png,black,cues/green.png,green,general,experimental,1,2,4,2,1,2 - 4 - 2,14,4,2,5.5,cues/fix_1.png,cues/fix_2.png,,,,
,,,,,,,,,,,,,,1,A,Exp,Männlich,2020-04-11_15h10.47.191,Mental_Exp,2020.1.2,MacIntel,60,,,,,,,,,,,1331.013,,,,,,0,,,0,,,0,,3,2.5,0,0,0,1,0,115,115,115,1,cues/black.png,black,cues/pink.png,pink,general,experimental,1,1,1,3,1,1 - 1 - 3,10,4,5.5,4,cues/fix_1.png,cues/fix_2.png,,,,
,,,,,,,,,,,,,,1,A,Exp,Männlich,2020-04-11_15h10.47.191,Mental_Exp,2020.1.2,MacIntel,60,,,,,,,,,,,1344.029,,,,,,0,,,0,,,0,,3,2.5,0,0,0,1,0,116,116,116,1,cues/grey.png,grey,cues/blue.png,blue,rule,experimental,1,4,4,2,1,4 - 4 - 2,25,4,4,3.5,cues/fix_1.png,cues/fix_2.png,,,,
,,,,,,,,,,,,,,1,A,Exp,Männlich,2020-04-11_15h10.47.191,Mental_Exp,2020.1.2,MacIntel,60,,,,,,,,,,,1355.046,,,,,,0,,,0,,,0,,3,2.5,0,0,0,1,0,117,117,117,1,cues/grey.png,grey,cues/pink.png,pink,rule,experimental,1,1,1,3,1,1 - 1 - 3,18,4,4.5,4,cues/fix_1.png,cues/fix_2.png,,,,
,,,,,,,,,,,,,,1,A,Exp,Männlich,2020-04-11_15h10.47.191,Mental_Exp,2020.1.2,MacIntel,60,,,,,,,,,,,1367.062,,,,,,0,,,0,,,0,,3,2.5,0,0,1,1,0,118,118,118,1,cues/white.png,white,cues/red.png,red,fill_sub_rule,filler,0,0,0,0,4,0 - 0 - 0,1,4,4.5,2,cues/fix_1.png,cues/fix_2.png,,0,,
,,,,,,,,,,,,,,1,A,Exp,Männlich,2020-04-11_15h10.47.191,Mental_Exp,2020.1.2,MacIntel,60,,,,,,,,,,,1377.079,,,,,,0,,,0,,,0,,3,2.5,0,0,0,1,0,119,119,119,1,cues/pink.png,pink,cues/pink.png,pink,spec,experimental,1,1,1,3,1,1 - 1 - 3,2,4,2.5,2,cues/fix_1.png,cues/fix_2.png,,,,
,,,,,,,,,,,,,,1,A,Exp,Männlich,2020-04-11_15h10.47.191,Mental_Exp,2020.1.2,MacIntel,60,,,,,,,,,,,1385.095,,,,,,0,,,0,,,0,,3,2.5,0,0,1,1,0,120,120,120,1,cues/white.png,white,cues/green.png,green,fill_sub_rule,filler,0,0,0,0,4,0 - 0 - 0,1,4,2.5,4,cues/fix_1.png,cues/fix_2.png,,0,,
,,,,,,,,,,,,,,1,A,Exp,Männlich,2020-04-11_15h10.47.191,Mental_Exp,2020.1.2,MacIntel,60,,,,,,,,,,,1395.111,,,,,,0,,,0,,,0,,3,2.5,0,0,0,1,0,121,121,121,1,cues/white.png,white,cues/pink.png,pink,subrule,experimental,1,1,1,3,1,1 - 1 - 3,32,4,5.5,5.5,cues/fix_1.png,cues/fix_2.png,,,,
,,,,,,,,,,,,,,1,A,Exp,Männlich,2020-04-11_15h10.47.191,Mental_Exp,2020.1.2,MacIntel,60,,,,,,,,,,,1409.628,,,,,,0,,,0,,,0,,3,2.5,0,0,0,1,0,122,122,122,1,cues/black.png,black,cues/red.png,red,general,experimental,1,4,2,4,1,4 - 2 - 4,15,4,3.5,3.5,cues/fix_1.png,cues/fix_2.png,,,,
,,,,,,,,,,,,,,1,A,Exp,Männlich,2020-04-11_15h10.47.191,Mental_Exp,2020.1.2,MacIntel,60,,,,,,,,,,,1420.145,,,,,,0,,,0,,,0,,3,2.5,0,0,0,1,0,123,123,123,1,cues/red.png,red,cues/red.png,red,spec,experimental,1,4,2,4,1,4 - 2 - 4,7,4,6,5,cues/fix_1.png,cues/fix_2.png,,,,
,,,,,,,,,,,,,,1,A,Exp,Männlich,2020-04-11_15h10.47.191,Mental_Exp,2020.1.2,MacIntel,60,,,,,,,,,,,1434.661,,,,,,0,,,0,,,0,,3,2.5,0,0,0,1,0,124,124,124,1,cues/yellow.png,yellow,cues/yellow.png,yellow,spec,experimental,1,1,3,1,1,1 - 3 - 1,8,4,2,4.5,cues/fix_1.png,cues/fix_2.png,,,,
,,,,,,,,,,,,,,1,A,Exp,Männlich,2020-04-11_15h10.47.191,Mental_Exp,2020.1.2,MacIntel,60,,,,,,,,,,,1444.677,,,,,,0,,,0,,,0,,3,2.5,0,0,0,1,0,125,125,125,1,cues/white.png,white,cues/purple.png,purple,subrule,experimental,1,2,2,4,1,2 - 2 - 4,27,4,5.5,3,cues/fix_1.png,cues/fix_2.png,,,,
,,,,,,,,,,,,,,1,A,Exp,Männlich,2020-04-11_15h10.47.191,Mental_Exp,2020.1.2,MacIntel,60,,,,,,,,,,,1456.694,,,,,,0,,,0,,,0,,3,2.5,0,0,0,1,0,126,126,126,1,cues/black.png,black,cues/purple.png,purple,general,experimental,1,2,2,4,1,2 - 2 - 4,11,4,2,5,cues/fix_1.png,cues/fix_2.png,,,,
,,,,,,,,,,,,,,1,A,Exp,Männlich,2020-04-11_15h10.47.191,Mental_Exp,2020.1.2,MacIntel,60,,,,,,,,,,,1467.213,,,,,,0,,,0,,,0,,3,2.5,0,0,0,1,0,127,127,127,1,cues/grey.png,grey,cues/lightblue.png,lightblue,rule,experimental,1,3,3,1,1,3 - 3 - 1,24,4,4,4.5,cues/fix_1.png,cues/fix_2.png,,,,
,,,,,,,,,,,,,,1,A,Exp,Männlich,2020-04-11_15h10.47.191,Mental_Exp,2020.1.2,MacIntel,60,,,,,,,,,,,1479.228,,,,,,0,,,0,,,0,,3,2.5,0,0,0,1,0,128,128,128,1,cues/green.png,green,cues/green.png,green,spec,experimental,1,2,4,2,1,2 - 4 - 2,6,4,3.5,5,cues/fix_1.png,cues/fix_2.png,,,,
,,,,,,,,,,,,,,1,A,Exp,Männlich,2020-04-11_15h10.47.191,Mental_Exp,2020.1.2,MacIntel,60,,,,,,,,,,,1491.245,,,,,,0,,,0,,,0,,3,2.5,0,0,0,1,0,129,129,129,1,cues/white.png,white,cues/purple.png,purple,subrule,experimental,1,2,2,4,1,2 - 2 - 4,31,4,3.5,5.5,cues/fix_1.png,cues/fix_2.png,,,,
,,,,,,,,,,,,,,1,A,Exp,Männlich,2020-04-11_15h10.47.191,Mental_Exp,2020.1.2,MacIntel,60,,,,,,,,,,,1503.761,,,,,,0,,,0,,,0,,3,2.5,0,0,1,1,0,130,130,130,1,cues/grey.png,grey,cues/red.png,red,fill_rule,filler,0,0,0,0,4,0 - 0 - 0,1,4,2.5,3,cues/fix_1.png,cues/fix_2.png,,0,,
,,,,,,,,,,,,,,1,A,Exp,Männlich,2020-04-11_15h10.47.191,Mental_Exp,2020.1.2,MacIntel,60,,,,,,,,,,,1512.778,,,,,,0,,,0,,,0,,3,2.5,0,0,0,1,0,131,131,131,1,cues/black.png,black,cues/orange.png,orange,general,experimental,1,3,1,3,1,3 - 1 - 3,17,4,3.5,6,cues/fix_1.png,cues/fix_2.png,,,,
,,,,,,,,,,,,,,1,A,Exp,Männlich,2020-04-11_15h10.47.191,Mental_Exp,2020.1.2,MacIntel,60,,,,,,,,,,,1525.794,,,,,,0,,,0,,,0,,3,2.5,0,0,0,1,0,132,132,132,1,cues/white.png,white,cues/pink.png,pink,subrule,experimental,1,1,1,3,1,1 - 1 - 3,26,4,4.5,4,cues/fix_1.png,cues/fix_2.png,,,,
,,,,,,,,,,,,,,1,A,Exp,Männlich,2020-04-11_15h10.47.191,Mental_Exp,2020.1.2,MacIntel,60,,,,,,,,,,,1537.811,,,,,,0,,,0,,,0,,3,2.5,0,0,0,1,0,133,133,133,1,cues/black.png,black,cues/lightblue.png,lightblue,general,experimental,1,3,3,1,1,3 - 3 - 1,12,4,5,2,cues/fix_1.png,cues/fix_2.png,,,,
,,,,,,,,,,,,,,1,A,Exp,Männlich,2020-04-11_15h10.47.191,Mental_Exp,2020.1.2,MacIntel,60,,,,,,,,,,,1548.327,,,,,,0,,,0,,,0,,3,2.5,0,0,0,1,0,134,134,134,1,cues/white.png,white,cues/purple.png,purple,subrule,experimental,1,2,2,4,1,2 - 2 - 4,29,4,3.5,4.5,cues/fix_1.png,cues/fix_2.png,,,,
,,,,,,,,,,,,,,1,A,Exp,Männlich,2020-04-11_15h10.47.191,Mental_Exp,2020.1.2,MacIntel,60,,,,,,,,,,,1559.844,,,,,,0,,,0,,,0,,3,2.5,0,0,0,1,0,135,135,135,1,cues/purple.png,purple,cues/purple.png,purple,spec,experimental,1,2,2,4,1,2 - 2 - 4,3,4,3.5,4.5,cues/fix_1.png,cues/fix_2.png,,,,
,,,,,,,,,,,,,,1,A,Exp,Männlich,2020-04-11_15h10.47.191,Mental_Exp,2020.1.2,MacIntel,60,,,,,,,,,,,1571.361,,,,,,0,,,0,,,0,,3,2.5,0,0,0,1,0,136,136,136,1,cues/white.png,white,cues/pink.png,pink,subrule,experimental,1,1,1,3,1,1 - 1 - 3,30,4,5,2,cues/fix_1.png,cues/fix_2.png,,,,
,,,,,,,,,,,,,,1,A,Exp,Männlich,2020-04-11_15h10.47.191,Mental_Exp,2020.1.2,MacIntel,60,,,,,,,,,,,1581.86,,,,,,0,,,0,,,0,,3,2.5,0,0,0,1,0,137,137,137,1,cues/blue.png,blue,cues/blue.png,blue,spec,experimental,1,4,4,2,1,4 - 4 - 2,5,4,3,3.5,cues/fix_1.png,cues/fix_2.png,,,,
,,,,,,,,,,,,,,1,A,Exp,Männlich,2020-04-11_15h10.47.191,Mental_Exp,2020.1.2,MacIntel,60,,,,,,,,,,,1591.876,,,,,,0,,,0,,,0,,3,2.5,0,0,0,1,0,138,138,138,1,cues/lightblue.png,lightblue,cues/lightblue.png,lightblue,spec,experimental,1,3,3,1,1,3 - 3 - 1,4,4,3.5,6,cues/fix_1.png,cues/fix_2.png,,,,
,,,,,,,,,,,,,,1,A,Exp,Männlich,2020-04-11_15h10.47.191,Mental_Exp,2020.1.2,MacIntel,60,,,,,,,,,,,1604.876,,,,,,0,,,0,,,0,,3,2.5,0,0,0,1,0,139,139,139,1,cues/grey.png,grey,cues/blue.png,blue,rule,experimental,1,4,4,2,1,4 - 4 - 2,21,4,2,3.5,cues/fix_1.png,cues/fix_2.png,,,,
,,,,,,,,,,,,,,1,A,Exp,Männlich,2020-04-11_15h10.47.191,Mental_Exp,2020.1.2,MacIntel,60,,,,,,,,,,,1613.893,,,,,,0,,,0,,,0,,3,2.5,0,0,0,1,0,140,140,140,1,cues/white.png,white,cues/pink.png,pink,subrule,experimental,1,1,1,3,1,1 - 1 - 3,28,4,5.5,5,cues/fix_1.png,cues/fix_2.png,,,,
,,,,,,,,,,,,,,1,A,Exp,Männlich,2020-04-11_15h10.47.191,Mental_Exp,2020.1.2,MacIntel,60,,,,,,,,,,,1627.892,,,,,,0,,,0,,,0,,3,2.5,0,0,1,1,0,141,141,141,1,cues/blue.png,blue,cues/orange.png,orange,fill_spec,filler,0,0,0,0,4,0 - 0 - 0,1,4,3.5,3.5,cues/fix_1.png,cues/fix_2.png,,0,,
,,,,,,,,,,,,,,1,A,Exp,Männlich,2020-04-11_15h10.47.191,Mental_Exp,2020.1.2,MacIntel,60,,,,,,,,,,,1638.409,,,,,,0,,,0,,,0,,3,2.5,0,0,0,1,0,142,142,142,1,cues/grey.png,grey,cues/purple.png,purple,rule,experimental,1,2,2,4,1,2 - 2 - 4,23,4,5,5.5,cues/fix_1.png,cues/fix_2.png,,,,
,,,,,,,,,,,,,,1,A,Exp,Männlich,2020-04-11_15h10.47.191,Mental_Exp,2020.1.2,MacIntel,60,,,,,,,,,,,1652.409,,,,,,0,,,0,,,0,,3,2.5,0,0,0,1,0,143,143,143,1,cues/white.png,white,cues/purple.png,purple,subrule,experimental,1,2,2,4,1,2 - 2 - 4,33,4,4.5,3,cues/fix_1.png,cues/fix_2.png,,,,
,,,,,,,,,,,,,,1,A,Exp,Männlich,2020-04-11_15h10.47.191,Mental_Exp,2020.1.2,MacIntel,60,,,,,,,,,,,1663.425,,,,,,0,,,0,,,0,,3,2.5,0,0,0,1,0,144,144,144,1,cues/black.png,black,cues/yellow.png,yellow,general,experimental,1,1,3,1,1,1 - 3 - 1,16,4,5,5.5,cues/fix_1.png,cues/fix_2.png,,,,
,,,,,,,,,,,,,,1,A,Exp,Männlich,2020-04-11_15h10.47.191,Mental_Exp,2020.1.2,MacIntel,60,,,,,,,,,,,1677.442,,,,,,0,,,0,,,0,,3,2.5,0,0,1,1,0,145,145,145,1,cues/grey.png,grey,cues/green.png,green,fill_rule,filler,0,0,0,0,4,0 - 0 - 0,1,4,5,5.5,cues/fix_1.png,cues/fix_2.png,,0,,
,,,,,,,,,,,,,,1,A,Exp,Männlich,2020-04-11_15h10.47.191,Mental_Exp,2020.1.2,MacIntel,60,,,,,,,,,,,1691.458,,,,,,0,,,0,,,0,,3,2.5,0,0,0,1,0,146,146,146,1,cues/grey.png,grey,cues/lightblue.png,lightblue,rule,experimental,1,3,3,1,1,3 - 3 - 1,20,4,6,5.5,cues/fix_1.png,cues/fix_2.png,,,,
,,,,,,,,,,,,,,1,A,Exp,Männlich,2020-04-11_15h10.47.191,Mental_Exp,2020.1.2,MacIntel,60,,,,,,,,,,,1706.475,,,,,,0,,,0,,,0,,3,2.5,0,0,0,1,0,147,147,147,1,cues/black.png,black,cues/blue.png,blue,general,experimental,1,4,4,2,1,4 - 4 - 2,13,4,4.5,5,cues/fix_1.png,cues/fix_2.png,,,,
,,,,,,,,,,,,,,1,A,Exp,Männlich,2020-04-11_15h10.47.191,Mental_Exp,2020.1.2,MacIntel,60,,,,,,,,,,,1719.488,,,,,,0,,,0,,,0,,3,2.5,0,0,0,1,0,148,148,148,1,cues/grey.png,grey,cues/pink.png,pink,rule,experimental,1,1,1,3,1,1 - 1 - 3,22,4,5.5,5,cues/fix_1.png,cues/fix_2.png,,,,
,,,,,,,,,,,,,,1,A,Exp,Männlich,2020-04-11_15h10.47.191,Mental_Exp,2020.1.2,MacIntel,60,,,,,,,,,,,1733.508,,,,,,0,,,0,,,0,,3,2.5,0,0,0,1,0,149,149,149,1,cues/grey.png,grey,cues/purple.png,purple,rule,experimental,1,2,2,4,1,2 - 2 - 4,19,4,5.5,3.5,cues/fix_1.png,cues/fix_2.png,,,,
,,,,,,,,,,,,,,1,A,Exp,Männlich,2020-04-11_15h10.47.191,Mental_Exp,2020.1.2,MacIntel,60,,,,,,,,,,,1746.025,,,,,,0,,,0,,,0,,3,2.5,0,0,0,1,0,150,150,150,1,cues/orange.png,orange,cues/orange.png,orange,spec,experimental,1,3,1,3,1,3 - 1 - 3,9,4,2,3,cues/fix_1.png,cues/fix_2.png,,,,
,,,,,,,,,,,,,,1,A,Exp,Männlich,2020-04-11_15h10.47.191,Mental_Exp,2020.1.2,MacIntel,60,,,,,,,,,,,1754.524,,,,,,0,,,0,,,0,,3,2.5,0,0,1,1,0,151,151,151,1,cues/yellow.png,yellow,cues/pink.png,pink,fill_spec,filler,0,0,0,0,4,0 - 0 - 0,1,4,4.5,6,cues/fix_1.png,cues/fix_2.png,,0,,
,,,,,,,,,,,,,,1,A,Exp,Männlich,2020-04-11_15h10.47.191,Mental_Exp,2020.1.2,MacIntel,60,,,,,,,,,,,1768.539,,,,,,0,,,0,,,0,,3,2.5,0,0,0,1,0,152,152,152,1,cues/white.png,white,cues/purple.png,purple,subrule,experimental,1,2,2,4,1,2 - 2 - 4,27,5,4,3.5,cues/fix_1.png,cues/fix_2.png,,,,
,,,,,,,,,,,,,,1,A,Exp,Männlich,2020-04-11_15h10.47.191,Mental_Exp,2020.1.2,MacIntel,60,,,,,,,,,,,1779.557,,,,,,0,,,0,,,0,,3,2.5,0,0,0,1,0,153,153,153,1,cues/white.png,white,cues/purple.png,purple,subrule,experimental,1,2,2,4,1,2 - 2 - 4,31,5,5,3.5,cues/fix_1.png,cues/fix_2.png,,,,
,,,,,,,,,,,,,,1,A,Exp,Männlich,2020-04-11_15h10.47.191,Mental_Exp,2020.1.2,MacIntel,60,,,,,,,,,,,1791.574,,,,,,0,,,0,,,0,,3,2.5,0,0,0,1,0,154,154,154,1,cues/grey.png,grey,cues/lightblue.png,lightblue,rule,experimental,1,3,3,1,1,3 - 3 - 1,24,5,3.5,5,cues/fix_1.png,cues/fix_2.png,,,,
,,,,,,,,,,,,,,1,A,Exp,Männlich,2020-04-11_15h10.47.191,Mental_Exp,2020.1.2,MacIntel,60,,,,,,,,,,,1803.59,,,,,,0,,,0,,,0,,3,2.5,0,0,1,1,0,155,155,155,1,cues/grey.png,grey,cues/orange.png,orange,fill_rule,filler,0,0,0,0,4,0 - 0 - 0,1,5,4.5,2.5,cues/fix_1.png,cues/fix_2.png,,0,,
,,,,,,,,,,,,,,1,A,Exp,Männlich,2020-04-11_15h10.47.191,Mental_Exp,2020.1.2,MacIntel,60,,,,,,,,,,,1814.107,,,,,,0,,,0,,,0,,3,2.5,0,0,0,1,0,156,156,156,1,cues/black.png,black,cues/purple.png,purple,general,experimental,1,2,2,4,1,2 - 2 - 4,11,5,2.5,3,cues/fix_1.png,cues/fix_2.png,,,,
,,,,,,,,,,,,,,1,A,Exp,Männlich,2020-04-11_15h10.47.191,Mental_Exp,2020.1.2,MacIntel,60,,,,,,,,,,,1823.123,,,,,,0,,,0,,,0,,3,2.5,0,0,0,1,0,157,157,157,1,cues/white.png,white,cues/pink.png,pink,subrule,experimental,1,1,1,3,1,1 - 1 - 3,32,5,2.5,5,cues/fix_1.png,cues/fix_2.png,,,,
,,,,,,,,,,,,,,1,A,Exp,Männlich,2020-04-11_15h10.47.191,Mental_Exp,2020.1.2,MacIntel,60,,,,,,,,,,,1834.14,,,,,,0,,,0,,,0,,3,2.5,0,0,0,1,0,158,158,158,1,cues/white.png,white,cues/purple.png,purple,subrule,experimental,1,2,2,4,1,2 - 2 - 4,29,5,3.5,4,cues/fix_1.png,cues/fix_2.png,,,,
,,,,,,,,,,,,,,1,A,Exp,Männlich,2020-04-11_15h10.47.191,Mental_Exp,2020.1.2,MacIntel,60,,,,,,,,,,,1845.155,,,,,,0,,,0,,,0,,3,2.5,0,0,0,1,0,159,159,159,1,cues/grey.png,grey,cues/pink.png,pink,rule,experimental,1,1,1,3,1,1 - 1 - 3,22,5,2,5,cues/fix_1.png,cues/fix_2.png,,,,
,,,,,,,,,,,,,,1,A,Exp,Männlich,2020-04-11_15h10.47.191,Mental_Exp,2020.1.2,MacIntel,60,,,,,,,,,,,1855.673,,,,,,0,,,0,,,0,,3,2.5,0,0,1,1,0,160,160,160,1,cues/white.png,white,cues/yellow.png,yellow,fill_sub_rule,filler,0,0,0,0,4,0 - 0 - 0,1,5,4,3,cues/fix_1.png,cues/fix_2.png,,0,,
,,,,,,,,,,,,,,1,A,Exp,Männlich,2020-04-11_15h10.47.191,Mental_Exp,2020.1.2,MacIntel,60,,,,,,,,,,,1866.173,,,,,,0,,,0,,,0,,3,2.5,0,0,0,1,0,161,161,161,1,cues/black.png,black,cues/pink.png,pink,general,experimental,1,1,1,3,1,1 - 1 - 3,10,5,4,2,cues/fix_1.png,cues/fix_2.png,,,,
,,,,,,,,,,,,,,1,A,Exp,Männlich,2020-04-11_15h10.47.191,Mental_Exp,2020.1.2,MacIntel,60,,,,,,,,,,,1875.689,,,,,,0,,,0,,,0,,3,2.5,0,0,0,1,0,162,162,162,1,cues/blue.png,blue,cues/blue.png,blue,spec,experimental,1,4,4,2,1,4 - 4 - 2,5,5,3.5,6,cues/fix_1.png,cues/fix_2.png,,,,
,,,,,,,,,,,,,,1,A,Exp,Männlich,2020-04-11_15h10.47.191,Mental_Exp,2020.1.2,MacIntel,60,,,,,,,,,,,1888.707,,,,,,0,,,0,,,0,,3,2.5,0,0,0,1,0,163,163,163,1,cues/grey.png,grey,cues/purple.png,purple,rule,experimental,1,2,2,4,1,2 - 2 - 4,23,5,3,3.5,cues/fix_1.png,cues/fix_2.png,,,,
,,,,,,,,,,,,,,1,A,Exp,Männlich,2020-04-11_15h10.47.191,Mental_Exp,2020.1.2,MacIntel,60,,,,,,,,,,,1898.723,,,,,,0,,,0,,,0,,3,2.5,0,0,0,1,0,164,164,164,1,cues/black.png,black,cues/lightblue.png,lightblue,general,experimental,1,3,3,1,1,3 - 3 - 1,12,5,2.5,3,cues/fix_1.png,cues/fix_2.png,,,,
,,,,,,,,,,,,,,1,A,Exp,Männlich,2020-04-11_15h10.47.191,Mental_Exp,2020.1.2,MacIntel,60,,,,,,,,,,,1907.737,,,,,,0,,,0,,,0,,3,2.5,0,0,0,1,0,165,165,165,1,cues/red.png,red,cues/red.png,red,spec,experimental,1,4,2,4,1,4 - 2 - 4,7,5,4.5,6,cues/fix_1.png,cues/fix_2.png,,,,
,,,,,,,,,,,,,,1,A,Exp,Männlich,2020-04-11_15h10.47.191,Mental_Exp,2020.1.2,MacIntel,60,,,,,,,,,,,1921.754,,,,,,0,,,0,,,0,,3,2.5,0,0,0,1,0,166,166,166,1,cues/white.png,white,cues/purple.png,purple,subrule,experimental,1,2,2,4,1,2 - 2 - 4,33,5,4,5.5,cues/fix_1.png,cues/fix_2.png,,,,
,,,,,,,,,,,,,,1,A,Exp,Männlich,2020-04-11_15h10.47.191,Mental_Exp,2020.1.2,MacIntel,60,,,,,,,,,,,1934.772,,,,,,0,,,0,,,0,,3,2.5,0,0,0,1,0,167,167,167,1,cues/white.png,white,cues/pink.png,pink,subrule,experimental,1,1,1,3,1,1 - 1 - 3,30,5,6,3.5,cues/fix_1.png,cues/fix_2.png,,,,
,,,,,,,,,,,,,,1,A,Exp,Männlich,2020-04-11_15h10.47.191,Mental_Exp,2020.1.2,MacIntel,60,,,,,,,,,,,1947.788,,,,,,0,,,0,,,0,,3,2.5,0,0,0,1,0,168,168,168,1,cues/lightblue.png,lightblue,cues/lightblue.png,lightblue,spec,experimental,1,3,3,1,1,3 - 3 - 1,4,5,2,2.5,cues/fix_1.png,cues/fix_2.png,,,,
,,,,,,,,,,,,,,1,A,Exp,Männlich,2020-04-11_15h10.47.191,Mental_Exp,2020.1.2,MacIntel,60,,,,,,,,,,,1955.805,,,,,,0,,,0,,,0,,3,2.5,0,0,1,1,0,169,169,169,1,cues/grey.png,grey,cues/yellow.png,yellow,fill_rule,filler,0,0,0,0,4,0 - 0 - 0,1,5,2.5,2,cues/fix_1.png,cues/fix_2.png,,0,,
,,,,,,,,,,,,,,1,A,Exp,Männlich,2020-04-11_15h10.47.191,Mental_Exp,2020.1.2,MacIntel,60,,,,,,,,,,,1963.822,,,,,,0,,,0,,,0,,3,2.5,0,0,0,1,0,170,170,170,1,cues/grey.png,grey,cues/pink.png,pink,rule,experimental,1,1,1,3,1,1 - 1 - 3,18,5,5.5,6,cues/fix_1.png,cues/fix_2.png,,,,
,,,,,,,,,,,,,,1,A,Exp,Männlich,2020-04-11_15h10.47.191,Mental_Exp,2020.1.2,MacIntel,60,,,,,,,,,,,1978.838,,,,,,0,,,0,,,0,,3,2.5,0,0,1,1,0,171,171,171,1,cues/white.png,white,cues/orange.png,orange,fill_sub_rule,filler,0,0,0,0,4,0 - 0 - 0,1,5,6,2,cues/fix_1.png,cues/fix_2.png,,0,,
,,,,,,,,,,,,,,1,A,Exp,Männlich,2020-04-11_15h10.47.191,Mental_Exp,2020.1.2,MacIntel,60,,,,,,,,,,,1990.355,,,,,,0,,,0,,,0,,3,2.5,0,0,0,1,0,172,172,172,1,cues/black.png,black,cues/yellow.png,yellow,general,experimental,1,1,3,1,1,1 - 3 - 1,16,5,4,5,cues/fix_1.png,cues/fix_2.png,,,,
,,,,,,,,,,,,,,1,A,Exp,Männlich,2020-04-11_15h10.47.191,Mental_Exp,2020.1.2,MacIntel,60,,,,,,,,,,,2002.871,,,,,,0,,,0,,,0,,3,2.5,0,0,0,1,0,173,173,173,1,cues/black.png,black,cues/green.png,green,general,experimental,1,2,4,2,1,2 - 4 - 2,14,5,2,3.5,cues/fix_1.png,cues/fix_2.png,,,,
,,,,,,,,,,,,,,1,A,Exp,Männlich,2020-04-11_15h10.47.191,Mental_Exp,2020.1.2,MacIntel,60,,,,,,,,,,,2011.871,,,,,,0,,,0,,,0,,3,2.5,0,0,0,1,0,174,174,174,1,cues/grey.png,grey,cues/blue.png,blue,rule,experimental,1,4,4,2,1,4 - 4 - 2,21,5,4,2.5,cues/fix_1.png,cues/fix_2.png,,,,
,,,,,,,,,,,,,,1,A,Exp,Männlich,2020-04-11_15h10.47.191,Mental_Exp,2020.1.2,MacIntel,60,,,,,,,,,,,2021.886,,,,,,0,,,0,,,0,,3,2.5,0,0,1,1,0,175,175,175,1,cues/green.png,green,cues/yellow.png,yellow,fill_spec,filler,0,0,0,0,4,0 - 0 - 0,1,5,5,5.5,cues/fix_1.png,cues/fix_2.png,,0,,
,,,,,,,,,,,,,,1,A,Exp,Männlich,2020-04-11_15h10.47.191,Mental_Exp,2020.1.2,MacIntel,60,,,,,,,,,,,2035.904,,,,,,0,,,0,,,0,,3,2.5,0,0,0,1,0,176,176,176,1,cues/orange.png,orange,cues/orange.png,orange,spec,experimental,1,3,1,3,1,3 - 1 - 3,9,5,5.5,4.5,cues/fix_1.png,cues/fix_2.png,,,,
,,,,,,,,,,,,,,1,A,Exp,Männlich,2020-04-11_15h10.47.191,Mental_Exp,2020.1.2,MacIntel,60,,,,,,,,,,,2049.421,,,,,,0,,,0,,,0,,3,2.5,0,0,0,1,0,177,177,177,1,cues/black.png,black,cues/blue.png,blue,general,experimental,1,4,4,2,1,4 - 4 - 2,13,5,5.5,2.5,cues/fix_1.png,cues/fix_2.png,,,,
,,,,,,,,,,,,,,1,A,Exp,Männlich,2020-04-11_15h10.47.191,Mental_Exp,2020.1.2,MacIntel,60,,,,,,,,,,,2060.936,,,,,,0,,,0,,,0,,3,2.5,0,0,0,1,0,178,178,178,1,cues/green.png,green,cues/green.png,green,spec,experimental,1,2,4,2,1,2 - 4 - 2,6,5,4,2,cues/fix_1.png,cues/fix_2.png,,,,
,,,,,,,,,,,,,,1,A,Exp,Männlich,2020-04-11_15h10.47.191,Mental_Exp,2020.1.2,MacIntel,60,,,,,,,,,,,2070.454,,,,,,0,,,0,,,0,,3,2.5,0,0,1,1,0,179,179,179,1,cues/lightblue.png,lightblue,cues/blue.png,blue,fill_spec,filler,0,0,0,0,4,0 - 0 - 0,1,5,5.5,3,cues/fix_1.png,cues/fix_2.png,,0,,
,,,,,,,,,,,,,,1,A,Exp,Männlich,2020-04-11_15h10.47.191,Mental_Exp,2020.1.2,MacIntel,60,,,,,,,,,,,2082.47,,,,,,0,,,0,,,0,,3,2.5,0,0,0,1,0,180,180,180,1,cues/white.png,white,cues/pink.png,pink,subrule,experimental,1,1,1,3,1,1 - 1 - 3,28,5,3,4.5,cues/fix_1.png,cues/fix_2.png,,,,
,,,,,,,,,,,,,,1,A,Exp,Männlich,2020-04-11_15h10.47.191,Mental_Exp,2020.1.2,MacIntel,60,,,,,,,,,,,2093.487,,,,,,0,,,0,,,0,,3,2.5,0,0,0,1,0,181,181,181,1,cues/white.png,white,cues/pink.png,pink,subrule,experimental,1,1,1,3,1,1 - 1 - 3,26,5,5,3,cues/fix_1.png,cues/fix_2.png,,,,
,,,,,,,,,,,,,,1,A,Exp,Männlich,2020-04-11_15h10.47.191,Mental_Exp,2020.1.2,MacIntel,60,,,,,,,,,,,2105.003,,,,,,0,,,0,,,0,,3,2.5,0,0,0,1,0,182,182,182,1,cues/grey.png,grey,cues/blue.png,blue,rule,experimental,1,4,4,2,1,4 - 4 - 2,25,5,4.5,3,cues/fix_1.png,cues/fix_2.png,,,,
,,,,,,,,,,,,,,1,A,Exp,Männlich,2020-04-11_15h10.47.191,Mental_Exp,2020.1.2,MacIntel,60,,,,,,,,,,,2116.019,,,,,,0,,,0,,,0,,3,2.5,0,0,0,1,0,183,183,183,1,cues/black.png,black,cues/red.png,red,general,experimental,1,4,2,4,1,4 - 2 - 4,15,5,4.5,5.5,cues/fix_1.png,cues/fix_2.png,,,,
,,,,,,,,,,,,,,1,A,Exp,Männlich,2020-04-11_15h10.47.191,Mental_Exp,2020.1.2,MacIntel,60,,,,,,,,,,,2129.538,,,,,,0,,,0,,,0,,3,2.5,0,0,0,1,0,184,184,184,1,cues/grey.png,grey,cues/lightblue.png,lightblue,rule,experimental,1,3,3,1,1,3 - 3 - 1,20,5,4.5,4.5,cues/fix_1.png,cues/fix_2.png,,,,
,,,,,,,,,,,,,,1,A,Exp,Männlich,2020-04-11_15h10.47.191,Mental_Exp,2020.1.2,MacIntel,60,,,,,,,,,,,2142.052,,,,,,0,,,0,,,0,,3,2.5,0,0,0,1,0,185,185,185,1,cues/pink.png,pink,cues/pink.png,pink,spec,experimental,1,1,1,3,1,1 - 1 - 3,2,5,2.5,5,cues/fix_1.png,cues/fix_2.png,,,,
,,,,,,,,,,,,,,1,A,Exp,Männlich,2020-04-11_15h10.47.191,Mental_Exp,2020.1.2,MacIntel,60,,,,,,,,,,,2153.067,,,,,,0,,,0,,,0,,3,2.5,0,0,0,1,0,186,186,186,1,cues/purple.png,purple,cues/purple.png,purple,spec,experimental,1,2,2,4,1,2 - 2 - 4,3,5,3.5,2,cues/fix_1.png,cues/fix_2.png,,,,
,,,,,,,,,,,,,,1,A,Exp,Männlich,2020-04-11_15h10.47.191,Mental_Exp,2020.1.2,MacIntel,60,,,,,,,,,,,2162.086,,,,,,0,,,0,,,0,,3,2.5,0,0,0,1,0,187,187,187,1,cues/grey.png,grey,cues/purple.png,purple,rule,experimental,1,2,2,4,1,2 - 2 - 4,19,5,4,6,cues/fix_1.png,cues/fix_2.png,,,,
,,,,,,,,,,,,,,1,A,Exp,Männlich,2020-04-11_15h10.47.191,Mental_Exp,2020.1.2,MacIntel,60,,,,,,,,,,,2175.602,,,,,,0,,,0,,,0,,3,2.5,0,0,0,1,0,188,188,188,1,cues/yellow.png,yellow,cues/yellow.png,yellow,spec,experimental,1,1,3,1,1,1 - 3 - 1,8,5,3,6,cues/fix_1.png,cues/fix_2.png,,,,
,,,,,,,,,,,,,,1,A,Exp,Männlich,2020-04-11_15h10.47.191,Mental_Exp,2020.1.2,MacIntel,60,,,,,,,,,,,2188.118,,,,,,0,,,0,,,0,,3,2.5,0,0,0,1,0,189,189,189,1,cues/black.png,black,cues/orange.png,orange,general,experimental,1,3,1,3,1,3 - 1 - 3,17,5,6,5.5,cues/fix_1.png,cues/fix_2.png,,,,
,,,,,,,,,,,,,,1,A,Exp,Männlich,2020-04-11_15h10.47.191,Mental_Exp,2020.1.2,MacIntel,60,,,,,,,,,,,2203.134,,,,,,0,,,0,,,0,,3,2.5,0,0,0,1,0,190,190,190,1,cues/white.png,white,cues/purple.png,purple,subrule,experimental,1,2,2,4,1,2 - 2 - 4,27,6,5,6,cues/fix_1.png,cues/fix_2.png,,,,
,,,,,,,,,,,,,,1,A,Exp,Männlich,2020-04-11_15h10.47.191,Mental_Exp,2020.1.2,MacIntel,60,,,,,,,,,,,2217.651,,,,,,0,,,0,,,0,,3,2.5,0,0,0,1,0,191,191,191,1,cues/pink.png,pink,cues/pink.png,pink,spec,experimental,1,1,1,3,1,1 - 1 - 3,2,6,4.5,5.5,cues/fix_1.png,cues/fix_2.png,,,,
,,,,,,,,,,,,,,1,A,Exp,Männlich,2020-04-11_15h10.47.191,Mental_Exp,2020.1.2,MacIntel,60,,,,,,,,,,,2231.168,,,,,,0,,,0,,,0,,3,2.5,0,0,0,1,0,192,192,192,1,cues/black.png,black,cues/purple.png,purple,general,experimental,1,2,2,4,1,2 - 2 - 4,11,6,3,4.5,cues/fix_1.png,cues/fix_2.png,,,,
,,,,,,,,,,,,,,1,A,Exp,Männlich,2020-04-11_15h10.47.191,Mental_Exp,2020.1.2,MacIntel,60,,,,,,,,,,,2242.183,,,,,,0,,,0,,,0,,3,2.5,0,0,0,1,0,193,193,193,1,cues/black.png,black,cues/orange.png,orange,general,experimental,1,3,1,3,1,3 - 1 - 3,17,6,6,5.5,cues/fix_1.png,cues/fix_2.png,,,,
,,,,,,,,,,,,,,1,A,Exp,Männlich,2020-04-11_15h10.47.191,Mental_Exp,2020.1.2,MacIntel,60,,,,,,,,,,,2257.2,,,,,,0,,,0,,,0,,3,2.5,0,0,0,1,0,194,194,194,1,cues/white.png,white,cues/pink.png,pink,subrule,experimental,1,1,1,3,1,1 - 1 - 3,28,6,3.5,4,cues/fix_1.png,cues/fix_2.png,,,,
,,,,,,,,,,,,,,1,A,Exp,Männlich,2020-04-11_15h10.47.191,Mental_Exp,2020.1.2,MacIntel,60,,,,,,,,,,,2268.217,,,,,,0,,,0,,,0,,3,2.5,0,0,0,1,0,195,195,195,1,cues/grey.png,grey,cues/blue.png,blue,rule,experimental,1,4,4,2,1,4 - 4 - 2,25,6,4.5,2.5,cues/fix_1.png,cues/fix_2.png,,,,
,,,,,,,,,,,,,,1,A,Exp,Männlich,2020-04-11_15h10.47.191,Mental_Exp,2020.1.2,MacIntel,60,,,,,,,,,,,2278.733,,,,,,0,,,0,,,0,,3,2.5,0,0,0,1,0,196,196,196,1,cues/orange.png,orange,cues/orange.png,orange,spec,experimental,1,3,1,3,1,3 - 1 - 3,9,6,3.5,2,cues/fix_1.png,cues/fix_2.png,,,,
,,,,,,,,,,,,,,1,A,Exp,Männlich,2020-04-11_15h10.47.191,Mental_Exp,2020.1.2,MacIntel,60,,,,,,,,,,,2287.75,,,,,,0,,,0,,,0,,3,2.5,0,0,0,1,0,197,197,197,1,cues/grey.png,grey,cues/pink.png,pink,rule,experimental,1,1,1,3,1,1 - 1 - 3,18,6,4,5,cues/fix_1.png,cues/fix_2.png,,,,
,,,,,,,,,,,,,,1,A,Exp,Männlich,2020-04-11_15h10.47.191,Mental_Exp,2020.1.2,MacIntel,60,,,,,,,,,,,2300.266,,,,,,0,,,0,,,0,,3,2.5,0,0,1,1,0,198,198,198,1,cues/pink.png,pink,cues/yellow.png,yellow,fill_spec,filler,0,0,0,0,4,0 - 0 - 0,1,6,4,5.5,cues/fix_1.png,cues/fix_2.png,,0,,
,,,,,,,,,,,,,,1,A,Exp,Männlich,2020-04-11_15h10.47.191,Mental_Exp,2020.1.2,MacIntel,60,,,,,,,,,,,2313.283,,,,,,0,,,0,,,0,,3,2.5,0,0,0,1,0,199,199,199,1,cues/grey.png,grey,cues/purple.png,purple,rule,experimental,1,2,2,4,1,2 - 2 - 4,23,6,3.5,6,cues/fix_1.png,cues/fix_2.png,,,,
,,,,,,,,,,,,,,1,A,Exp,Männlich,2020-04-11_15h10.47.191,Mental_Exp,2020.1.2,MacIntel,60,,,,,,,,,,,2326.299,,,,,,0,,,0,,,0,,3,2.5,0,0,0,1,0,200,200,200,1,cues/grey.png,grey,cues/blue.png,blue,rule,experimental,1,4,4,2,1,4 - 4 - 2,21,6,5.5,4,cues/fix_1.png,cues/fix_2.png,,,,
,,,,,,,,,,,,,,1,A,Exp,Männlich,2020-04-11_15h10.47.191,Mental_Exp,2020.1.2,MacIntel,60,,,,,,,,,,,2339.316,,,,,,0,,,0,,,0,,3,2.5,0,0,0,1,0,201,201,201,1,cues/black.png,black,cues/pink.png,pink,general,experimental,1,1,1,3,1,1 - 1 - 3,10,6,5.5,3,cues/fix_1.png,cues/fix_2.png,,,,
,,,,,,,,,,,,,,1,A,Exp,Männlich,2020-04-11_15h10.47.191,Mental_Exp,2020.1.2,MacIntel,60,,,,,,,,,,,2351.315,,,,,,0,,,0,,,0,,3,2.5,0,0,0,1,0,202,202,202,1,cues/blue.png,blue,cues/blue.png,blue,spec,experimental,1,4,4,2,1,4 - 4 - 2,5,6,3,5,cues/fix_1.png,cues/fix_2.png,,,,
,,,,,,,,,,,,,,1,A,Exp,Männlich,2020-04-11_15h10.47.191,Mental_Exp,2020.1.2,MacIntel,60,,,,,,,,,,,2362.832,,,,,,0,,,0,,,0,,3,2.5,0,0,0,1,0,203,203,203,1,cues/green.png,green,cues/green.png,green,spec,experimental,1,2,4,2,1,2 - 4 - 2,6,6,6,5,cues/fix_1.png,cues/fix_2.png,,,,
,,,,,,,,,,,,,,1,A,Exp,Männlich,2020-04-11_15h10.47.191,Mental_Exp,2020.1.2,MacIntel,60,,,,,,,,,,,2377.348,,,,,,0,,,0,,,0,,3,2.5,0,0,1,1,0,204,204,204,1,cues/grey.png,grey,cues/orange.png,orange,fill_rule,filler,0,0,0,0,4,0 - 0 - 0,1,6,4,4,cues/fix_1.png,cues/fix_2.png,,0,,
,,,,,,,,,,,,,,1,A,Exp,Männlich,2020-04-11_15h10.47.191,Mental_Exp,2020.1.2,MacIntel,60,,,,,,,,,,,2388.864,,,,,,0,,,0,,,0,,3,2.5,0,0,0,1,0,205,205,205,1,cues/white.png,white,cues/purple.png,purple,subrule,experimental,1,2,2,4,1,2 - 2 - 4,31,6,3,4.5,cues/fix_1.png,cues/fix_2.png,,,,
,,,,,,,,,,,,,,1,A,Exp,Männlich,2020-04-11_15h10.47.191,Mental_Exp,2020.1.2,MacIntel,60,,,,,,,,,,,2399.881,,,,,,0,,,0,,,0,,3,2.5,0,0,0,1,0,206,206,206,1,cues/black.png,black,cues/green.png,green,general,experimental,1,2,4,2,1,2 - 4 - 2,14,6,3,3,cues/fix_1.png,cues/fix_2.png,,,,
,,,,,,,,,,,,,,1,A,Exp,Männlich,2020-04-11_15h10.47.191,Mental_Exp,2020.1.2,MacIntel,60,,,,,,,,,,,2409.398,,,,,,0,,,0,,,0,,3,2.5,0,0,0,1,0,207,207,207,1,cues/red.png,red,cues/red.png,red,spec,experimental,1,4,2,4,1,4 - 2 - 4,7,6,3.5,5.5,cues/fix_1.png,cues/fix_2.png,,,,
,,,,,,,,,,,,,,1,A,Exp,Männlich,2020-04-11_15h10.47.191,Mental_Exp,2020.1.2,MacIntel,60,,,,,,,,,,,2421.914,,,,,,0,,,0,,,0,,3,2.5,0,0,0,1,0,208,208,208,1,cues/black.png,black,cues/red.png,red,general,experimental,1,4,2,4,1,4 - 2 - 4,15,6,5,4,cues/fix_1.png,cues/fix_2.png,,,,
,,,,,,,,,,,,,,1,A,Exp,Männlich,2020-04-11_15h10.47.191,Mental_Exp,2020.1.2,MacIntel,60,,,,,,,,,,,2434.431,,,,,,0,,,0,,,0,,3,2.5,0,0,0,1,0,209,209,209,1,cues/black.png,black,cues/yellow.png,yellow,general,experimental,1,1,3,1,1,1 - 3 - 1,16,6,2.5,5.5,cues/fix_1.png,cues/fix_2.png,,,,
,,,,,,,,,,,,,,1,A,Exp,Männlich,2020-04-11_15h10.47.191,Mental_Exp,2020.1.2,MacIntel,60,,,,,,,,,,,2445.947,,,,,,0,,,0,,,0,,3,2.5,0,0,1,1,0,210,210,210,1,cues/grey.png,grey,cues/yellow.png,yellow,fill_rule,filler,0,0,0,0,4,0 - 0 - 0,1,6,3,4,cues/fix_1.png,cues/fix_2.png,,0,,
,,,,,,,,,,,,,,1,A,Exp,Männlich,2020-04-11_15h10.47.191,Mental_Exp,2020.1.2,MacIntel,60,,,,,,,,,,,2456.464,,,,,,0,,,0,,,0,,3,2.5,0,0,0,1,0,211,211,211,1,cues/white.png,white,cues/purple.png,purple,subrule,experimental,1,2,2,4,1,2 - 2 - 4,33,6,6,2.5,cues/fix_1.png,cues/fix_2.png,,,,
,,,,,,,,,,,,,,1,A,Exp,Männlich,2020-04-11_15h10.47.191,Mental_Exp,2020.1.2,MacIntel,60,,,,,,,,,,,2468.48,,,,,,0,,,0,,,0,,3,2.5,0,0,0,1,0,212,212,212,1,cues/grey.png,grey,cues/purple.png,purple,rule,experimental,1,2,2,4,1,2 - 2 - 4,19,6,5,3.5,cues/fix_1.png,cues/fix_2.png,,,,
,,,,,,,,,,,,,,1,A,Exp,Männlich,2020-04-11_15h10.47.191,Mental_Exp,2020.1.2,MacIntel,60,,,,,,,,,,,2754.387,,,,,,0,,,0,,,0,,3,2.5,0,0,0,1,0,213,213,213,1,cues/black.png,black,cues/lightblue.png,lightblue,general,experimental,1,3,3,1,1,3 - 3 - 1,12,6,4.5,2,cues/fix_1.png,cues/fix_2.png,,,,
,,,,,,,,,,,,,,1,A,Exp,Männlich,2020-04-11_15h10.47.191,Mental_Exp,2020.1.2,MacIntel,60,,,,,,,,,,,2764.403,,,,,,0,,,0,,,0,,3,2.5,0,0,0,1,0,214,214,214,1,cues/white.png,white,cues/pink.png,pink,subrule,experimental,1,1,1,3,1,1 - 1 - 3,32,6,4.5,2.5,cues/fix_1.png,cues/fix_2.png,,,,
,,,,,,,,,,,,,,1,A,Exp,Männlich,2020-04-11_15h10.47.191,Mental_Exp,2020.1.2,MacIntel,60,,,,,,,,,,,2774.92,,,,,,0,,,0,,,0,,3,2.5,0,0,0,1,0,215,215,215,1,cues/grey.png,grey,cues/lightblue.png,lightblue,rule,experimental,1,3,3,1,1,3 - 3 - 1,24,6,4,3.5,cues/fix_1.png,cues/fix_2.png,,,,
,,,,,,,,,,,,,,1,A,Exp,Männlich,2020-04-11_15h10.47.191,Mental_Exp,2020.1.2,MacIntel,60,,,,,,,,,,,2785.936,,,,,,0,,,0,,,0,,3,2.5,0,0,0,1,0,216,216,216,1,cues/white.png,white,cues/pink.png,pink,subrule,experimental,1,1,1,3,1,1 - 1 - 3,26,6,3,5.5,cues/fix_1.png,cues/fix_2.png,,,,
,,,,,,,,,,,,,,1,A,Exp,Männlich,2020-04-11_15h10.47.191,Mental_Exp,2020.1.2,MacIntel,60,,,,,,,,,,,2797.953,,,,,,0,,,0,,,0,,3,2.5,0,0,1,1,0,217,217,217,1,cues/white.png,white,cues/red.png,red,fill_sub_rule,filler,0,0,0,0,4,0 - 0 - 0,1,6,4,3,cues/fix_1.png,cues/fix_2.png,,0,,
,,,,,,,,,,,,,,1,A,Exp,Männlich,2020-04-11_15h10.47.191,Mental_Exp,2020.1.2,MacIntel,60,,,,,,,,,,,2808.47,,,,,,0,,,0,,,0,,3,2.5,0,0,0,1,0,218,218,218,1,cues/yellow.png,yellow,cues/yellow.png,yellow,spec,experimental,1,1,3,1,1,1 - 3 - 1,8,6,3,4,cues/fix_1.png,cues/fix_2.png,,,,
,,,,,,,,,,,,,,1,A,Exp,Männlich,2020-04-11_15h10.47.191,Mental_Exp,2020.1.2,MacIntel,60,,,,,,,,,,,2818.985,,,,,,0,,,0,,,0,,3,2.5,0,0,1,1,0,219,219,219,1,cues/blue.png,blue,cues/lightblue.png,lightblue,fill_spec,filler,0,0,0,0,4,0 - 0 - 0,1,6,6,2,cues/fix_1.png,cues/fix_2.png,,0,,
,,,,,,,,,,,,,,1,A,Exp,Männlich,2020-04-11_15h10.47.191,Mental_Exp,2020.1.2,MacIntel,60,,,,,,,,,,,2830.505,,,,,,0,,,0,,,0,,3,2.5,0,0,0,1,0,220,220,220,1,cues/lightblue.png,lightblue,cues/lightblue.png,lightblue,spec,experimental,1,3,3,1,1,3 - 3 - 1,4,6,2,4,cues/fix_1.png,cues/fix_2.png,,,,
,,,,,,,,,,,,,,1,A,Exp,Männlich,2020-04-11_15h10.47.191,Mental_Exp,2020.1.2,MacIntel,60,,,,,,,,,,,2840.02,,,,,,0,,,0,,,0,,3,2.5,0,0,0,1,0,221,221,221,1,cues/grey.png,grey,cues/pink.png,pink,rule,experimental,1,1,1,3,1,1 - 1 - 3,22,6,2,2.5,cues/fix_1.png,cues/fix_2.png,,,,
,,,,,,,,,,,,,,1,A,Exp,Männlich,2020-04-11_15h10.47.191,Mental_Exp,2020.1.2,MacIntel,60,,,,,,,,,,,2848.036,,,,,,0,,,0,,,0,,3,2.5,0,0,0,1,0,222,222,222,1,cues/white.png,white,cues/pink.png,pink,subrule,experimental,1,1,1,3,1,1 - 1 - 3,30,6,5.5,3.5,cues/fix_1.png,cues/fix_2.png,,,,
,,,,,,,,,,,,,,1,A,Exp,Männlich,2020-04-11_15h10.47.191,Mental_Exp,2020.1.2,MacIntel,60,,,,,,,,,,,2860.553,,,,,,0,,,0,,,0,,3,2.5,0,0,1,1,0,223,223,223,1,cues/white.png,white,cues/red.png,red,fill_sub_rule,filler,0,0,0,0,4,0 - 0 - 0,1,6,5.5,4.5,cues/fix_1.png,cues/fix_2.png,,0,,
,,,,,,,,,,,,,,1,A,Exp,Männlich,2020-04-11_15h10.47.191,Mental_Exp,2020.1.2,MacIntel,60,,,,,,,,,,,2874.069,,,,,,0,,,0,,,0,,3,2.5,0,0,0,1,0,224,224,224,1,cues/grey.png,grey,cues/lightblue.png,lightblue,rule,experimental,1,3,3,1,1,3 - 3 - 1,20,6,2,2,cues/fix_1.png,cues/fix_2.png,,,,
,,,,,,,,,,,,,,1,A,Exp,Männlich,2020-04-11_15h10.47.191,Mental_Exp,2020.1.2,MacIntel,60,,,,,,,,,,,2881.569,,,,,,0,,,0,,,0,,3,2.5,0,0,0,1,0,225,225,225,1,cues/black.png,black,cues/blue.png,blue,general,experimental,1,4,4,2,1,4 - 4 - 2,13,6,4,2.5,cues/fix_1.png,cues/fix_2.png,,,,
,,,,,,,,,,,,,,1,A,Exp,Männlich,2020-04-11_15h10.47.191,Mental_Exp,2020.1.2,MacIntel,60,,,,,,,,,,,2891.585,,,,,,0,,,0,,,0,,3,2.5,0,0,0,1,0,226,226,226,1,cues/purple.png,purple,cues/purple.png,purple,spec,experimental,1,2,2,4,1,2 - 2 - 4,3,6,2,3,cues/fix_1.png,cues/fix_2.png,,,,
,,,,,,,,,,,,,,1,A,Exp,Männlich,2020-04-11_15h10.47.191,Mental_Exp,2020.1.2,MacIntel,60,,,,,,,,,,,2900.102,,,,,,0,,,0,,,0,,3,2.5,0,0,0,1,0,227,227,227,1,cues/white.png,white,cues/purple.png,purple,subrule,experimental,1,2,2,4,1,2 - 2 - 4,29,6,6,4,cues/fix_1.png,cues/fix_2.png,,,,
,,,,,,,,,,,,,,1,A,Exp,Männlich,2020-04-11_15h10.47.191,Mental_Exp,2020.1.2,MacIntel,60,,,,,,,,,,,,,,,,,,,,,,,,,,,,,,,,,,,,,,,,,,,,,,,,,,,,,,,,,no
